Connecting to 24:71:89:C1:0D:07
time ,acc-x,acc-y,acc-z ,mag-x,mag-y,mag-z ,gyr-x,gyr-y,gyr-z 
2018/05/14 21:09:01.830804 , 0.0 , 0.0 , 0.0 , 0.0 , 0.0 , 0.0 , 0.0 , 0.0 , 0.0 
2018/05/14 21:09:02.143667 , 0.0 , 0.0 , 0.0 , 0.0 , 0.0 , 0.0 , 0.0 , 0.0 , 0.0 
2018/05/14 21:09:02.436101 , 0.0 , 0.0 , 0.0 , 0.0 , 0.0 , 0.0 , -4.16564941406 , 4.28771972656 , -0.42724609375 
2018/05/14 21:09:02.728638 , 0.0205078125 , 0.15234375 , 4.279296875 , 6.89719169719 , 9.44615384615 , -109.155555556 , -4.16564941406 , 4.28771972656 , -0.42724609375 
2018/05/14 21:09:03.021109 , 0.0205078125 , 0.15234375 , 4.279296875 , 6.89719169719 , 9.44615384615 , -109.155555556 , -4.16564941406 , 4.28771972656 , -0.42724609375 
2018/05/14 21:09:03.313601 , 0.0205078125 , 0.15234375 , 4.279296875 , 6.89719169719 , 9.44615384615 , -109.155555556 , -4.16564941406 , 4.28771972656 , -0.42724609375 
2018/05/14 21:09:03.606121 , -0.017578125 , -0.14453125 , 4.1142578125 , 8.39658119658 , 11.5452991453 , -118.001953602 , -3.81469726562 , 4.94384765625 , -0.0839233398438 
2018/05/14 21:09:03.898642 , -0.017578125 , -0.14453125 , 4.1142578125 , 8.39658119658 , 11.5452991453 , -118.001953602 , -3.81469726562 , 4.94384765625 , -0.0839233398438 
2018/05/14 21:09:04.191132 , -0.017578125 , -0.14453125 , 4.1142578125 , 8.39658119658 , 11.5452991453 , -118.001953602 , -3.81469726562 , 4.94384765625 , -0.0839233398438 
2018/05/14 21:09:04.483638 , -0.017578125 , -0.14453125 , 4.1142578125 , 9.44615384615 , 10.4957264957 , -117.402197802 , -4.90570068359 , 5.13458251953 , -0.343322753906 
2018/05/14 21:09:04.776124 , -0.0048828125 , 0.021484375 , 4.189453125 , 9.44615384615 , 10.4957264957 , -117.402197802 , -4.90570068359 , 5.13458251953 , -0.343322753906 
2018/05/14 21:09:05.068623 , -0.0048828125 , 0.021484375 , 4.189453125 , 9.44615384615 , 10.4957264957 , -117.402197802 , -4.90570068359 , 5.13458251953 , -0.343322753906 
2018/05/14 21:09:05.361123 , -0.0048828125 , 0.021484375 , 4.189453125 , 9.44615384615 , 10.4957264957 , -117.402197802 , -4.90570068359 , 5.13458251953 , -0.343322753906 
2018/05/14 21:09:05.653620 , 0.0537109375 , 0.1171875 , 3.99609375 , 7.94676434676 , 11.8451770452 , -116.652503053 , -5.94329833984 , 4.150390625 , 0.511169433594 
2018/05/14 21:09:05.946126 , 0.0537109375 , 0.1171875 , 3.99609375 , 7.94676434676 , 11.8451770452 , -116.652503053 , -5.94329833984 , 4.150390625 , 0.511169433594 
2018/05/14 21:09:06.238664 , 0.0537109375 , 0.1171875 , 3.99609375 , 7.94676434676 , 11.8451770452 , -116.652503053 , -5.94329833984 , 4.150390625 , 0.511169433594 
2018/05/14 21:09:06.531134 , 0.0537109375 , 0.1171875 , 3.99609375 , 6.74725274725 , 12.1450549451 , -115.452991453 , -4.22668457031 , 5.16510009766 , -0.770568847656 
2018/05/14 21:09:06.823631 , -0.111328125 , 0.0859375 , 4.5078125 , 6.74725274725 , 12.1450549451 , -115.452991453 , -4.22668457031 , 5.16510009766 , -0.770568847656 
2018/05/14 21:09:07.116212 , -0.111328125 , 0.0859375 , 4.5078125 , 6.74725274725 , 12.1450549451 , -115.452991453 , -4.22668457031 , 5.16510009766 , -0.770568847656 
2018/05/14 21:09:07.457444 , -0.111328125 , 0.0859375 , 4.5078125 , 5.84761904762 , 12.294993895 , -115.303052503 , -4.97436523438 , 2.97546386719 , -0.991821289062 
2018/05/14 21:09:07.798729 , -0.103515625 , 0.1826171875 , 3.982421875 , 5.84761904762 , 12.294993895 , -115.303052503 , -4.97436523438 , 2.97546386719 , -0.991821289062 
2018/05/14 21:09:08.091160 , -0.103515625 , 0.1826171875 , 3.982421875 , 5.84761904762 , 12.294993895 , -115.303052503 , -4.97436523438 , 2.97546386719 , -0.991821289062 
2018/05/14 21:09:08.383654 , -0.103515625 , 0.1826171875 , 3.982421875 , 5.84761904762 , 12.294993895 , -115.303052503 , -4.8828125 , 5.68389892578 , 0.335693359375 
2018/05/14 21:09:08.676151 , -0.0146484375 , 0.0390625 , 4.048828125 , 6.89719169719 , 12.5948717949 , -115.902808303 , -4.8828125 , 5.68389892578 , 0.335693359375 
2018/05/14 21:09:08.968630 , -0.0146484375 , 0.0390625 , 4.048828125 , 6.89719169719 , 12.5948717949 , -115.902808303 , -4.8828125 , 5.68389892578 , 0.335693359375 
2018/05/14 21:09:09.261149 , -0.0146484375 , 0.0390625 , 4.048828125 , 6.89719169719 , 12.5948717949 , -115.902808303 , -4.8828125 , 5.68389892578 , 0.335693359375 
2018/05/14 21:09:09.553658 , -0.0146484375 , 0.0390625 , 4.048828125 , 8.24664224664 , 12.1450549451 , -115.153113553 , -3.50189208984 , 4.74548339844 , 0.526428222656 
2018/05/14 21:09:09.846096 , 0.087890625 , 0.0546875 , 4.1591796875 , 8.24664224664 , 12.1450549451 , -115.153113553 , -3.50189208984 , 4.74548339844 , 0.526428222656 
2018/05/14 21:09:10.138657 , 0.087890625 , 0.0546875 , 4.1591796875 , 8.24664224664 , 12.1450549451 , -115.153113553 , -3.50189208984 , 4.74548339844 , 0.526428222656 
2018/05/14 21:09:10.431162 , 0.087890625 , 0.0546875 , 4.1591796875 , 8.24664224664 , 12.1450549451 , -115.153113553 , -4.23431396484 , 4.00543212891 , -1.89208984375 
2018/05/14 21:09:10.723655 , -0.01953125 , 0.068359375 , 4.166015625 , 8.39658119658 , 13.0446886447 , -115.602930403 , -4.23431396484 , 4.00543212891 , -1.89208984375 
2018/05/14 21:09:11.016154 , -0.01953125 , 0.068359375 , 4.166015625 , 8.39658119658 , 13.0446886447 , -115.602930403 , -4.23431396484 , 4.00543212891 , -1.89208984375 
2018/05/14 21:09:11.308664 , -0.01953125 , 0.068359375 , 4.166015625 , 8.39658119658 , 13.0446886447 , -115.602930403 , -4.23431396484 , 4.00543212891 , -1.89208984375 
2018/05/14 21:09:11.601164 , -0.0556640625 , -0.0625 , 4.087890625 , 7.19706959707 , 12.4449328449 , -114.403418803 , -5.60760498047 , 5.52368164062 , 0.282287597656 
2018/05/14 21:09:11.893704 , -0.0556640625 , -0.0625 , 4.087890625 , 7.19706959707 , 12.4449328449 , -114.403418803 , -5.60760498047 , 5.52368164062 , 0.282287597656 
2018/05/14 21:09:12.186223 , -0.0556640625 , -0.0625 , 4.087890625 , 7.19706959707 , 12.4449328449 , -114.403418803 , -5.60760498047 , 5.52368164062 , 0.282287597656 
2018/05/14 21:09:12.576197 , 0.1494140625 , 0.048828125 , 4.056640625 , 7.49694749695 , 11.3953601954 , -115.153113553 , -4.41741943359 , 8.07189941406 , -1.48010253906 
2018/05/14 21:09:12.868700 , 0.1494140625 , 0.048828125 , 4.056640625 , 7.49694749695 , 11.3953601954 , -115.153113553 , -4.41741943359 , 8.07189941406 , -1.48010253906 
2018/05/14 21:09:13.161221 , 0.1494140625 , 0.048828125 , 4.056640625 , 7.49694749695 , 11.3953601954 , -115.153113553 , -4.41741943359 , 8.07189941406 , -1.48010253906 
2018/05/14 21:09:13.551197 , 0.1494140625 , 0.048828125 , 4.056640625 , 6.89719169719 , 10.1958485958 , -113.203907204 , -0.938415527344 , 4.64630126953 , -0.396728515625 
2018/05/14 21:09:13.843671 , -0.107421875 , 0.1904296875 , 4.2197265625 , 6.89719169719 , 10.1958485958 , -113.203907204 , -0.938415527344 , 4.64630126953 , -0.396728515625 
2018/05/14 21:09:14.136175 , -0.107421875 , 0.1904296875 , 4.2197265625 , 6.89719169719 , 10.1958485958 , -113.203907204 , -0.938415527344 , 4.64630126953 , -0.396728515625 
2018/05/14 21:09:14.428679 , -0.107421875 , 0.1904296875 , 4.2197265625 , 6.89719169719 , 10.1958485958 , -113.203907204 , -3.86047363281 , 3.28826904297 , -1.46484375 
2018/05/14 21:09:14.721193 , -0.1181640625 , -0.0546875 , 4.197265625 , 7.19706959707 , 11.6952380952 , -115.752869353 , -3.86047363281 , 3.28826904297 , -1.46484375 
2018/05/14 21:09:15.013465 , -0.1181640625 , -0.0546875 , 4.197265625 , 7.19706959707 , 11.6952380952 , -115.752869353 , -3.86047363281 , 3.28826904297 , -1.46484375 
2018/05/14 21:09:15.305886 , -0.1181640625 , -0.0546875 , 4.197265625 , 7.19706959707 , 11.6952380952 , -115.752869353 , -3.86047363281 , 3.28826904297 , -1.46484375 
2018/05/14 21:09:15.598410 , -0.0185546875 , 0.376953125 , 4.0908203125 , 7.19706959707 , 12.1450549451 , -114.103540904 , -4.53948974609 , 5.05065917969 , 0.747680664062 
2018/05/14 21:09:15.891213 , -0.0185546875 , 0.376953125 , 4.0908203125 , 7.19706959707 , 12.1450549451 , -114.103540904 , -4.53948974609 , 5.05065917969 , 0.747680664062 
2018/05/14 21:09:16.183701 , -0.0185546875 , 0.376953125 , 4.0908203125 , 7.19706959707 , 12.1450549451 , -114.103540904 , -4.53948974609 , 5.05065917969 , 0.747680664062 
2018/05/14 21:09:16.476210 , -0.0185546875 , 0.376953125 , 4.0908203125 , 6.1474969475 , 11.3953601954 , -113.803663004 , -3.15856933594 , 6.08825683594 , -0.205993652344 
2018/05/14 21:09:16.768686 , 0.1806640625 , 0.1396484375 , 4.3896484375 , 6.1474969475 , 11.3953601954 , -113.803663004 , -3.15856933594 , 6.08825683594 , -0.205993652344 
2018/05/14 21:09:17.061219 , 0.1806640625 , 0.1396484375 , 4.3896484375 , 6.1474969475 , 11.3953601954 , -113.803663004 , -3.15856933594 , 6.08825683594 , -0.205993652344 
2018/05/14 21:09:17.353701 , 0.1806640625 , 0.1396484375 , 4.3896484375 , 6.1474969475 , 11.3953601954 , -113.803663004 , -4.79125976562 , 4.39453125 , 0.358581542969 
2018/05/14 21:09:17.695193 , 0.0146484375 , 0.21484375 , 4.3037109375 , 7.19706959707 , 12.7448107448 , -113.803663004 , -4.79125976562 , 4.39453125 , 0.358581542969 
2018/05/14 21:09:17.987482 , 0.0146484375 , 0.21484375 , 4.3037109375 , 7.19706959707 , 12.7448107448 , -113.803663004 , -4.79125976562 , 4.39453125 , 0.358581542969 
2018/05/14 21:09:18.280171 , 0.0146484375 , 0.21484375 , 4.3037109375 , 7.19706959707 , 12.7448107448 , -113.803663004 , -3.70025634766 , 4.150390625 , 0.114440917969 
2018/05/14 21:09:18.670067 , 0.1123046875 , -0.1318359375 , 4.2568359375 , 6.89719169719 , 11.8451770452 , -116.652503053 , -3.70025634766 , 4.150390625 , 0.114440917969 
2018/05/14 21:09:18.962811 , 0.1123046875 , -0.1318359375 , 4.2568359375 , 6.89719169719 , 11.8451770452 , -116.652503053 , -3.70025634766 , 4.150390625 , 0.114440917969 
2018/05/14 21:09:19.254983 , 0.1123046875 , -0.1318359375 , 4.2568359375 , 6.89719169719 , 11.8451770452 , -116.652503053 , -3.70025634766 , 4.150390625 , 0.114440917969 
2018/05/14 21:09:19.596236 , 0.0341796875 , 0.13671875 , 4.099609375 , 6.59731379731 , 13.0446886447 , -114.253479853 , -4.55474853516 , 5.48553466797 , -0.381469726562 
2018/05/14 21:09:19.888738 , 0.0341796875 , 0.13671875 , 4.099609375 , 6.59731379731 , 13.0446886447 , -114.253479853 , -4.55474853516 , 5.48553466797 , -0.381469726562 
2018/05/14 21:09:20.181234 , 0.0341796875 , 0.13671875 , 4.099609375 , 6.59731379731 , 13.0446886447 , -114.253479853 , -4.55474853516 , 5.48553466797 , -0.381469726562 
2018/05/14 21:09:20.473748 , 0.0341796875 , 0.13671875 , 4.099609375 , 6.29743589744 , 11.8451770452 , -113.953601954 , -4.638671875 , 4.50134277344 , 0.0381469726562 
2018/05/14 21:09:20.766254 , 0.16015625 , -0.076171875 , 4.0712890625 , 6.29743589744 , 11.8451770452 , -113.953601954 , -4.638671875 , 4.50134277344 , 0.0381469726562 
2018/05/14 21:09:21.058776 , 0.16015625 , -0.076171875 , 4.0712890625 , 6.29743589744 , 11.8451770452 , -113.953601954 , -4.638671875 , 4.50134277344 , 0.0381469726562 
2018/05/14 21:09:21.351263 , 0.16015625 , -0.076171875 , 4.0712890625 , 6.29743589744 , 11.8451770452 , -113.953601954 , -4.638671875 , 4.50134277344 , 0.0381469726562 
2018/05/14 21:09:21.643749 , -0.06640625 , 0.1357421875 , 4.1806640625 , 5.69768009768 , 11.6952380952 , -113.053968254 , -5.35583496094 , 4.75311279297 , 0.434875488281 
2018/05/14 21:09:21.984974 , -0.06640625 , 0.1357421875 , 4.1806640625 , 5.69768009768 , 11.6952380952 , -113.053968254 , -5.35583496094 , 4.75311279297 , 0.434875488281 
2018/05/14 21:09:22.277499 , -0.06640625 , 0.1357421875 , 4.1806640625 , 5.69768009768 , 11.6952380952 , -113.053968254 , -5.35583496094 , 4.75311279297 , 0.434875488281 
2018/05/14 21:09:22.570097 , -0.29296875 , 0.0400390625 , 4.109375 , 6.1474969475 , 11.3953601954 , -112.754090354 , -4.98962402344 , 4.05120849609 , -0.00762939453125 
2018/05/14 21:09:22.862605 , -0.29296875 , 0.0400390625 , 4.109375 , 6.1474969475 , 11.3953601954 , -112.754090354 , -4.98962402344 , 4.05120849609 , -0.00762939453125 
2018/05/14 21:09:23.155013 , -0.29296875 , 0.0400390625 , 4.109375 , 6.1474969475 , 11.3953601954 , -112.754090354 , -4.98962402344 , 4.05120849609 , -0.00762939453125 
2018/05/14 21:09:23.447504 , -0.29296875 , 0.0400390625 , 4.109375 , 6.29743589744 , 11.5452991453 , -113.653724054 , -5.20324707031 , 3.90625 , 0.625610351562 
2018/05/14 21:09:23.788767 , 0.04296875 , 0.146484375 , 4.18359375 , 6.29743589744 , 11.5452991453 , -113.653724054 , -5.20324707031 , 3.90625 , 0.625610351562 
2018/05/14 21:09:24.081430 , 0.04296875 , 0.146484375 , 4.18359375 , 6.29743589744 , 11.5452991453 , -113.653724054 , -5.20324707031 , 3.90625 , 0.625610351562 
2018/05/14 21:09:24.373830 , 0.04296875 , 0.146484375 , 4.18359375 , 6.29743589744 , 11.5452991453 , -113.653724054 , -5.22613525391 , 4.92095947266 , -0.892639160156 
2018/05/14 21:09:24.715359 , -0.1552734375 , -0.0185546875 , 4.1181640625 , 5.69768009768 , 11.6952380952 , -115.452991453 , -5.22613525391 , 4.92095947266 , -0.892639160156 
2018/05/14 21:09:25.007508 , -0.1552734375 , -0.0185546875 , 4.1181640625 , 5.69768009768 , 11.6952380952 , -115.452991453 , -5.22613525391 , 4.92095947266 , -0.892639160156 
2018/05/14 21:09:25.300088 , -0.1552734375 , -0.0185546875 , 4.1181640625 , 5.69768009768 , 11.6952380952 , -115.452991453 , -5.22613525391 , 4.92095947266 , -0.892639160156 
2018/05/14 21:09:25.592604 , 0.158203125 , 0.208984375 , 4.44921875 , 7.64688644689 , 11.2454212454 , -112.154334554 , -3.08227539062 , 5.77545166016 , 1.32751464844 
2018/05/14 21:09:25.885011 , 0.158203125 , 0.208984375 , 4.44921875 , 7.64688644689 , 11.2454212454 , -112.154334554 , -3.08227539062 , 5.77545166016 , 1.32751464844 
2018/05/14 21:09:26.177522 , 0.158203125 , 0.208984375 , 4.44921875 , 7.64688644689 , 11.2454212454 , -112.154334554 , -3.08227539062 , 5.77545166016 , 1.32751464844 
2018/05/14 21:09:26.470051 , 0.158203125 , 0.208984375 , 4.44921875 , 7.49694749695 , 13.1946275946 , -113.053968254 , -4.73022460938 , 4.40216064453 , -0.0686645507812 
2018/05/14 21:09:26.811437 , 0.0341796875 , 0.1376953125 , 4.1875 , 7.49694749695 , 13.1946275946 , -113.053968254 , -4.73022460938 , 4.40216064453 , -0.0686645507812 
2018/05/14 21:09:27.103832 , 0.0341796875 , 0.1376953125 , 4.1875 , 7.49694749695 , 13.1946275946 , -113.053968254 , -4.73022460938 , 4.40216064453 , -0.0686645507812 
2018/05/14 21:09:27.396287 , 0.0341796875 , 0.1376953125 , 4.1875 , 7.49694749695 , 13.1946275946 , -113.053968254 , -2.51007080078 , 4.28009033203 , 0.67138671875 
2018/05/14 21:09:27.688769 , -0.255859375 , 0.09765625 , 4.05078125 , 7.19706959707 , 10.6456654457 , -111.704517705 , -2.51007080078 , 4.28009033203 , 0.67138671875 
2018/05/14 21:09:27.981269 , -0.255859375 , 0.09765625 , 4.05078125 , 7.19706959707 , 10.6456654457 , -111.704517705 , -2.51007080078 , 4.28009033203 , 0.67138671875 
2018/05/14 21:09:28.273778 , -0.255859375 , 0.09765625 , 4.05078125 , 7.19706959707 , 10.6456654457 , -111.704517705 , -2.51007080078 , 4.28009033203 , 0.67138671875 
2018/05/14 21:09:28.566295 , -0.3642578125 , 0.091796875 , 4.0087890625 , 7.94676434676 , 12.294993895 , -115.003174603 , -4.93621826172 , 5.27191162109 , 0.251770019531 
2018/05/14 21:09:28.858773 , -0.3642578125 , 0.091796875 , 4.0087890625 , 7.94676434676 , 12.294993895 , -115.003174603 , -4.93621826172 , 5.27191162109 , 0.251770019531 
2018/05/14 21:09:29.151269 , -0.3642578125 , 0.091796875 , 4.0087890625 , 7.94676434676 , 12.294993895 , -115.003174603 , -4.93621826172 , 5.27191162109 , 0.251770019531 
2018/05/14 21:09:29.443778 , -0.3642578125 , 0.091796875 , 4.0087890625 , 7.94676434676 , 12.294993895 , -115.003174603 , -4.93621826172 , 5.35583496094 , -0.984191894531 
2018/05/14 21:09:29.785206 , -0.00390625 , 0.2451171875 , 4.140625 , 7.94676434676 , 12.294993895 , -115.003174603 , -4.93621826172 , 5.35583496094 , -0.984191894531 
2018/05/14 21:09:30.077664 , -0.00390625 , 0.2451171875 , 4.140625 , 7.94676434676 , 12.294993895 , -115.003174603 , -4.93621826172 , 5.35583496094 , -0.984191894531 
2018/05/14 21:09:30.370171 , -0.00390625 , 0.2451171875 , 4.140625 , 7.94676434676 , 12.294993895 , -115.003174603 , -5.18798828125 , 5.11169433594 , -1.68609619141 
2018/05/14 21:09:30.662575 , -0.296875 , 0.1533203125 , 4.234375 , 6.89719169719 , 10.7956043956 , -111.854456654 , -5.18798828125 , 5.11169433594 , -1.68609619141 
2018/05/14 21:09:30.955044 , -0.296875 , 0.1533203125 , 4.234375 , 6.89719169719 , 10.7956043956 , -111.854456654 , -5.18798828125 , 5.11169433594 , -1.68609619141 
2018/05/14 21:09:31.247717 , -0.296875 , 0.1533203125 , 4.234375 , 6.89719169719 , 10.7956043956 , -111.854456654 , -5.18798828125 , 5.11169433594 , -1.68609619141 
2018/05/14 21:09:31.588811 , -0.0361328125 , -0.0712890625 , 4.1240234375 , 6.89719169719 , 10.7956043956 , -111.854456654 , -5.859375 , 4.79125976562 , -0.747680664062 
2018/05/14 21:09:31.930109 , -0.0361328125 , -0.0712890625 , 4.1240234375 , 6.89719169719 , 10.7956043956 , -111.854456654 , -5.859375 , 4.79125976562 , -0.747680664062 
2018/05/14 21:09:32.222577 , -0.0361328125 , -0.0712890625 , 4.1240234375 , 6.89719169719 , 10.7956043956 , -111.854456654 , -5.859375 , 4.79125976562 , -0.747680664062 
2018/05/14 21:09:32.515153 , -0.0361328125 , -0.0712890625 , 4.1240234375 , 6.89719169719 , 10.7956043956 , -111.854456654 , -4.07409667969 , 4.76837158203 , 1.09100341797 
2018/05/14 21:09:32.807591 , -0.115234375 , 0.05859375 , 3.923828125 , 6.89719169719 , 10.7956043956 , -111.854456654 , -4.07409667969 , 4.76837158203 , 1.09100341797 
2018/05/14 21:09:33.100097 , -0.115234375 , 0.05859375 , 3.923828125 , 6.89719169719 , 10.7956043956 , -111.854456654 , -4.07409667969 , 4.76837158203 , 1.09100341797 
2018/05/14 21:09:33.392598 , -0.115234375 , 0.05859375 , 3.923828125 , 6.89719169719 , 10.7956043956 , -111.854456654 , -5.06591796875 , 4.89044189453 , -0.411987304688 
2018/05/14 21:09:33.685071 , -0.1328125 , 0.451171875 , 4.2275390625 , 6.59731379731 , 12.5948717949 , -115.003174603 , -5.06591796875 , 4.89044189453 , -0.411987304688 
2018/05/14 21:09:33.977597 , -0.1328125 , 0.451171875 , 4.2275390625 , 6.59731379731 , 12.5948717949 , -115.003174603 , -5.06591796875 , 4.89044189453 , -0.411987304688 
2018/05/14 21:09:34.270208 , -0.1328125 , 0.451171875 , 4.2275390625 , 6.59731379731 , 12.5948717949 , -115.003174603 , -5.06591796875 , 4.89044189453 , -0.411987304688 
2018/05/14 21:09:34.562613 , -0.255859375 , 0.1962890625 , 4.2734375 , 7.34700854701 , 13.3445665446 , -113.653724054 , -4.04357910156 , 5.40161132812 , 0.152587890625 
2018/05/14 21:09:34.855233 , -0.255859375 , 0.1962890625 , 4.2734375 , 7.34700854701 , 13.3445665446 , -113.653724054 , -4.04357910156 , 5.40161132812 , 0.152587890625 
2018/05/14 21:09:35.147622 , -0.255859375 , 0.1962890625 , 4.2734375 , 7.34700854701 , 13.3445665446 , -113.653724054 , -4.04357910156 , 5.40161132812 , 0.152587890625 
2018/05/14 21:09:35.489033 , -0.255859375 , 0.1962890625 , 4.2734375 , 7.34700854701 , 13.3445665446 , -113.653724054 , -4.73022460938 , 4.61578369141 , 1.87683105469 
2018/05/14 21:09:35.781457 , 0.013671875 , 0.078125 , 4.072265625 , 7.34700854701 , 13.3445665446 , -113.653724054 , -4.73022460938 , 4.61578369141 , 1.87683105469 
2018/05/14 21:09:36.122703 , 0.013671875 , 0.078125 , 4.072265625 , 7.34700854701 , 13.3445665446 , -113.653724054 , -4.73022460938 , 4.61578369141 , 1.87683105469 
2018/05/14 21:09:36.415147 , 0.013671875 , 0.078125 , 4.072265625 , 7.34700854701 , 13.3445665446 , -113.653724054 , -4.82940673828 , 5.35583496094 , -0.0228881835938 
2018/05/14 21:09:36.707709 , -0.158203125 , 0.1875 , 4.3994140625 , 7.34700854701 , 13.3445665446 , -113.653724054 , -4.82940673828 , 5.35583496094 , -0.0228881835938 
2018/05/14 21:09:37.000226 , -0.158203125 , 0.1875 , 4.3994140625 , 7.34700854701 , 13.3445665446 , -113.653724054 , -4.82940673828 , 5.35583496094 , -0.0228881835938 
2018/05/14 21:09:37.292619 , -0.158203125 , 0.1875 , 4.3994140625 , 7.34700854701 , 13.3445665446 , -113.653724054 , -4.82940673828 , 5.35583496094 , -0.0228881835938 
2018/05/14 21:09:37.585087 , -0.0947265625 , 0.333984375 , 4.248046875 , 6.44737484737 , 8.8463980464 , -112.754090354 , -5.57708740234 , 4.07409667969 , -0.205993652344 
2018/05/14 21:09:37.877689 , -0.0947265625 , 0.333984375 , 4.248046875 , 6.44737484737 , 8.8463980464 , -112.754090354 , -5.57708740234 , 4.07409667969 , -0.205993652344 
2018/05/14 21:09:38.170235 , -0.0947265625 , 0.333984375 , 4.248046875 , 6.44737484737 , 8.8463980464 , -112.754090354 , -5.57708740234 , 4.07409667969 , -0.205993652344 
2018/05/14 21:09:38.462648 , -0.0947265625 , 0.333984375 , 4.248046875 , 6.44737484737 , 8.8463980464 , -112.754090354 , -4.20379638672 , 5.09643554688 , 2.77709960938 
2018/05/14 21:09:38.755154 , 0.046875 , 0.0029296875 , 4.3134765625 , 6.74725274725 , 11.6952380952 , -113.053968254 , -4.20379638672 , 5.09643554688 , 2.77709960938 
2018/05/14 21:09:39.096403 , 0.046875 , 0.0029296875 , 4.3134765625 , 6.74725274725 , 11.6952380952 , -113.053968254 , -4.20379638672 , 5.09643554688 , 2.77709960938 
2018/05/14 21:09:39.388873 , 0.046875 , 0.0029296875 , 4.3134765625 , 6.74725274725 , 11.6952380952 , -113.053968254 , -3.96728515625 , 5.29479980469 , -0.839233398438 
2018/05/14 21:09:39.730228 , -0.134765625 , 0.041015625 , 4.11328125 , 7.79682539683 , 12.4449328449 , -113.803663004 , -3.96728515625 , 5.29479980469 , -0.839233398438 
2018/05/14 21:09:40.022658 , -0.134765625 , 0.041015625 , 4.11328125 , 7.79682539683 , 12.4449328449 , -113.803663004 , -3.96728515625 , 5.29479980469 , -0.839233398438 
2018/05/14 21:09:40.315176 , -0.134765625 , 0.041015625 , 4.11328125 , 7.79682539683 , 12.4449328449 , -113.803663004 , -3.96728515625 , 5.29479980469 , -0.839233398438 
2018/05/14 21:09:40.607689 , -0.1103515625 , 0.1767578125 , 4.0390625 , 7.34700854701 , 11.8451770452 , -113.203907204 , -4.95910644531 , 4.85229492188 , -1.50299072266 
2018/05/14 21:09:40.948596 , -0.1103515625 , 0.1767578125 , 4.0390625 , 7.34700854701 , 11.8451770452 , -113.203907204 , -4.95910644531 , 4.85229492188 , -1.50299072266 
2018/05/14 21:09:41.241529 , -0.1103515625 , 0.1767578125 , 4.0390625 , 7.34700854701 , 11.8451770452 , -113.203907204 , -4.95910644531 , 4.85229492188 , -1.50299072266 
2018/05/14 21:09:41.534049 , 0.0537109375 , 0.12890625 , 3.87890625 , 6.59731379731 , 10.1958485958 , -113.953601954 , -4.56237792969 , 5.18035888672 , 0.0228881835938 
2018/05/14 21:09:41.972686 , 0.0537109375 , 0.12890625 , 3.87890625 , 6.59731379731 , 10.1958485958 , -113.953601954 , -4.56237792969 , 5.18035888672 , 0.0228881835938 
2018/05/14 21:09:42.265137 , 0.0537109375 , 0.12890625 , 3.87890625 , 6.59731379731 , 10.1958485958 , -113.953601954 , -4.56237792969 , 5.18035888672 , 0.0228881835938 
2018/05/14 21:09:42.557664 , 0.0537109375 , 0.12890625 , 3.87890625 , 7.49694749695 , 11.0954822955 , -112.004395604 , -3.05938720703 , 2.67028808594 , 0.480651855469 
2018/05/14 21:09:42.850177 , 0.0322265625 , 0.1171875 , 3.955078125 , 7.49694749695 , 11.0954822955 , -112.004395604 , -3.05938720703 , 2.67028808594 , 0.480651855469 
2018/05/14 21:09:43.143024 , 0.0322265625 , 0.1171875 , 3.955078125 , 7.49694749695 , 11.0954822955 , -112.004395604 , -3.05938720703 , 2.67028808594 , 0.480651855469 
2018/05/14 21:09:43.435162 , 0.0322265625 , 0.1171875 , 3.955078125 , 7.49694749695 , 11.0954822955 , -112.004395604 , -5.15747070312 , 5.30242919922 , -1.76239013672 
2018/05/14 21:09:43.727652 , 0.1416015625 , 0.09765625 , 4.388671875 , 6.1474969475 , 11.0954822955 , -113.053968254 , -5.15747070312 , 5.30242919922 , -1.76239013672 
2018/05/14 21:09:44.020201 , 0.1416015625 , 0.09765625 , 4.388671875 , 6.1474969475 , 11.0954822955 , -113.053968254 , -5.15747070312 , 5.30242919922 , -1.76239013672 
2018/05/14 21:09:44.312673 , 0.1416015625 , 0.09765625 , 4.388671875 , 6.1474969475 , 11.0954822955 , -113.053968254 , -5.15747070312 , 5.30242919922 , -1.76239013672 
2018/05/14 21:09:44.605138 , -0.1533203125 , 0.0634765625 , 4.1552734375 , 8.24664224664 , 12.4449328449 , -111.404639805 , -4.89044189453 , 3.92150878906 , 0.30517578125 
2018/05/14 21:09:44.897642 , -0.1533203125 , 0.0634765625 , 4.1552734375 , 8.24664224664 , 12.4449328449 , -111.404639805 , -4.89044189453 , 3.92150878906 , 0.30517578125 
2018/05/14 21:09:45.239011 , -0.1533203125 , 0.0634765625 , 4.1552734375 , 8.24664224664 , 12.4449328449 , -111.404639805 , -4.89044189453 , 3.92150878906 , 0.30517578125 
2018/05/14 21:09:45.531123 , -0.1533203125 , 0.0634765625 , 4.1552734375 , 6.1474969475 , 12.4449328449 , -113.053968254 , -3.56292724609 , 5.53131103516 , -0.495910644531 
2018/05/14 21:09:45.823603 , -0.1923828125 , 0.095703125 , 4.0205078125 , 6.1474969475 , 12.4449328449 , -113.053968254 , -3.56292724609 , 5.53131103516 , -0.495910644531 
2018/05/14 21:09:46.116441 , -0.1923828125 , 0.095703125 , 4.0205078125 , 6.1474969475 , 12.4449328449 , -113.053968254 , -3.56292724609 , 5.53131103516 , -0.495910644531 
2018/05/14 21:09:46.408935 , -0.1923828125 , 0.095703125 , 4.0205078125 , 6.1474969475 , 12.4449328449 , -113.053968254 , -5.45501708984 , 3.81469726562 , -0.67138671875 
2018/05/14 21:09:46.701459 , -0.1640625 , 0.0927734375 , 4.041015625 , 8.24664224664 , 10.6456654457 , -112.004395604 , -5.45501708984 , 3.81469726562 , -0.67138671875 
2018/05/14 21:09:47.042831 , -0.1640625 , 0.0927734375 , 4.041015625 , 8.24664224664 , 10.6456654457 , -112.004395604 , -5.45501708984 , 3.81469726562 , -0.67138671875 
2018/05/14 21:09:47.335237 , -0.1640625 , 0.0927734375 , 4.041015625 , 8.24664224664 , 10.6456654457 , -112.004395604 , -5.45501708984 , 3.81469726562 , -0.67138671875 
2018/05/14 21:09:47.627687 , -0.291015625 , 0.1533203125 , 4.2509765625 , 5.84761904762 , 11.5452991453 , -113.203907204 , -4.05120849609 , 5.02777099609 , -1.60980224609 
2018/05/14 21:09:47.920236 , -0.291015625 , 0.1533203125 , 4.2509765625 , 5.84761904762 , 11.5452991453 , -113.203907204 , -4.05120849609 , 5.02777099609 , -1.60980224609 
2018/05/14 21:09:48.212677 , -0.291015625 , 0.1533203125 , 4.2509765625 , 5.84761904762 , 11.5452991453 , -113.203907204 , -4.05120849609 , 5.02777099609 , -1.60980224609 
2018/05/14 21:09:48.505217 , -0.291015625 , 0.1533203125 , 4.2509765625 , 6.74725274725 , 13.1946275946 , -114.103540904 , -5.99670410156 , 4.00543212891 , -0.114440917969 
2018/05/14 21:09:48.797665 , -0.1484375 , -0.0224609375 , 4.0458984375 , 6.74725274725 , 13.1946275946 , -114.103540904 , -5.99670410156 , 4.00543212891 , -0.114440917969 
2018/05/14 21:09:49.090459 , -0.1484375 , -0.0224609375 , 4.0458984375 , 6.74725274725 , 13.1946275946 , -114.103540904 , -5.99670410156 , 4.00543212891 , -0.114440917969 
2018/05/14 21:09:49.382428 , -0.1484375 , -0.0224609375 , 4.0458984375 , 6.74725274725 , 13.1946275946 , -114.103540904 , -3.27301025391 , 4.49371337891 , 1.10626220703 
2018/05/14 21:09:49.675208 , -0.0595703125 , 0.3701171875 , 4.3369140625 , 6.89719169719 , 11.8451770452 , -113.653724054 , -3.27301025391 , 4.49371337891 , 1.10626220703 
2018/05/14 21:09:49.967693 , -0.0595703125 , 0.3701171875 , 4.3369140625 , 6.89719169719 , 11.8451770452 , -113.653724054 , -3.27301025391 , 4.49371337891 , 1.10626220703 
2018/05/14 21:09:50.260258 , -0.0595703125 , 0.3701171875 , 4.3369140625 , 6.89719169719 , 11.8451770452 , -113.653724054 , -3.27301025391 , 4.49371337891 , 1.10626220703 
2018/05/14 21:09:50.552716 , -0.0595703125 , 0.3701171875 , 4.3369140625 , 6.1474969475 , 11.6952380952 , -113.053968254 , -3.48663330078 , 4.90570068359 , 1.08337402344 
2018/05/14 21:09:50.845211 , -0.03515625 , -0.1650390625 , 3.994140625 , 6.1474969475 , 11.6952380952 , -113.053968254 , -3.48663330078 , 4.90570068359 , 1.08337402344 
2018/05/14 21:09:51.137720 , -0.03515625 , -0.1650390625 , 3.994140625 , 6.1474969475 , 11.6952380952 , -113.053968254 , -3.48663330078 , 4.90570068359 , 1.08337402344 
2018/05/14 21:09:51.430257 , -0.03515625 , -0.1650390625 , 3.994140625 , 6.1474969475 , 11.6952380952 , -113.053968254 , -4.02069091797 , 6.12640380859 , -0.48828125 
2018/05/14 21:09:51.722731 , -0.1220703125 , -0.029296875 , 4.166015625 , 6.74725274725 , 12.1450549451 , -112.754090354 , -4.02069091797 , 6.12640380859 , -0.48828125 
2018/05/14 21:09:52.015241 , -0.1220703125 , -0.029296875 , 4.166015625 , 6.74725274725 , 12.1450549451 , -112.754090354 , -4.02069091797 , 6.12640380859 , -0.48828125 
2018/05/14 21:09:52.356793 , -0.1220703125 , -0.029296875 , 4.166015625 , 6.74725274725 , 12.1450549451 , -112.754090354 , -4.02069091797 , 6.12640380859 , -0.48828125 
2018/05/14 21:09:52.649103 , -0.2099609375 , 0.12109375 , 3.9296875 , 7.19706959707 , 13.1946275946 , -113.803663004 , -4.99725341797 , 4.61578369141 , 2.38800048828 
2018/05/14 21:09:52.990616 , -0.2099609375 , 0.12109375 , 3.9296875 , 7.19706959707 , 13.1946275946 , -113.803663004 , -4.99725341797 , 4.61578369141 , 2.38800048828 
2018/05/14 21:09:53.282817 , -0.2099609375 , 0.12109375 , 3.9296875 , 7.19706959707 , 13.1946275946 , -113.803663004 , -4.99725341797 , 4.61578369141 , 2.38800048828 
2018/05/14 21:09:53.575280 , 0.00390625 , 0.27734375 , 4.1552734375 , 6.29743589744 , 12.294993895 , -112.604151404 , -3.45611572266 , 5.75256347656 , -0.534057617188 
2018/05/14 21:09:53.867753 , 0.00390625 , 0.27734375 , 4.1552734375 , 6.29743589744 , 12.294993895 , -112.604151404 , -3.45611572266 , 5.75256347656 , -0.534057617188 
2018/05/14 21:09:54.160293 , 0.00390625 , 0.27734375 , 4.1552734375 , 6.29743589744 , 12.294993895 , -112.604151404 , -3.45611572266 , 5.75256347656 , -0.534057617188 
2018/05/14 21:09:54.452737 , 0.00390625 , 0.27734375 , 4.1552734375 , 6.29743589744 , 12.294993895 , -112.604151404 , -5.75256347656 , 5.57708740234 , 1.24359130859 
2018/05/14 21:09:54.745222 , 0.1474609375 , 0.0673828125 , 4.0234375 , 5.69768009768 , 11.6952380952 , -113.353846154 , -5.75256347656 , 5.57708740234 , 1.24359130859 
2018/05/14 21:09:55.037723 , 0.1474609375 , 0.0673828125 , 4.0234375 , 5.69768009768 , 11.6952380952 , -113.353846154 , -5.75256347656 , 5.57708740234 , 1.24359130859 
2018/05/14 21:09:55.330253 , 0.1474609375 , 0.0673828125 , 4.0234375 , 5.69768009768 , 11.6952380952 , -113.353846154 , -5.75256347656 , 5.57708740234 , 1.24359130859 
2018/05/14 21:09:55.622752 , -0.1337890625 , -0.08203125 , 4.177734375 , 6.44737484737 , 12.4449328449 , -113.053968254 , -3.82232666016 , 5.32531738281 , -0.534057617188 
2018/05/14 21:09:55.915227 , -0.1337890625 , -0.08203125 , 4.177734375 , 6.44737484737 , 12.4449328449 , -113.053968254 , -3.82232666016 , 5.32531738281 , -0.534057617188 
2018/05/14 21:09:56.256500 , -0.1337890625 , -0.08203125 , 4.177734375 , 6.44737484737 , 12.4449328449 , -113.053968254 , -3.82232666016 , 5.32531738281 , -0.534057617188 
2018/05/14 21:09:56.548979 , -0.1337890625 , -0.08203125 , 4.177734375 , 6.44737484737 , 12.4449328449 , -113.053968254 , -4.59289550781 , 2.91442871094 , -1.22833251953 
2018/05/14 21:09:56.841487 , -0.140625 , 0.1552734375 , 4.0185546875 , 6.44737484737 , 12.4449328449 , -113.053968254 , -4.59289550781 , 2.91442871094 , -1.22833251953 
2018/05/14 21:09:57.134001 , -0.140625 , 0.1552734375 , 4.0185546875 , 6.44737484737 , 12.4449328449 , -113.053968254 , -4.59289550781 , 2.91442871094 , -1.22833251953 
2018/05/14 21:09:57.426489 , -0.140625 , 0.1552734375 , 4.0185546875 , 6.44737484737 , 12.4449328449 , -113.053968254 , -4.85992431641 , 3.97491455078 , -0.450134277344 
2018/05/14 21:09:57.718993 , 0.0556640625 , -0.091796875 , 4.19921875 , 6.74725274725 , 12.7448107448 , -112.754090354 , -4.85992431641 , 3.97491455078 , -0.450134277344 
2018/05/14 21:09:58.011561 , 0.0556640625 , -0.091796875 , 4.19921875 , 6.74725274725 , 12.7448107448 , -112.754090354 , -4.85992431641 , 3.97491455078 , -0.450134277344 
2018/05/14 21:09:58.352798 , 0.0556640625 , -0.091796875 , 4.19921875 , 6.74725274725 , 12.7448107448 , -112.754090354 , -4.85992431641 , 3.97491455078 , -0.450134277344 
2018/05/14 21:09:58.645335 , 0.001953125 , 0.1669921875 , 4.22265625 , 9.29621489621 , 12.4449328449 , -112.004395604 , -5.01251220703 , 5.92803955078 , 0.694274902344 
2018/05/14 21:09:58.937759 , 0.001953125 , 0.1669921875 , 4.22265625 , 9.29621489621 , 12.4449328449 , -112.004395604 , -5.01251220703 , 5.92803955078 , 0.694274902344 
2018/05/14 21:09:59.230303 , 0.001953125 , 0.1669921875 , 4.22265625 , 9.29621489621 , 12.4449328449 , -112.004395604 , -5.01251220703 , 5.92803955078 , 0.694274902344 
2018/05/14 21:09:59.522752 , 0.001953125 , 0.1669921875 , 4.22265625 , 7.34700854701 , 10.4957264957 , -113.953601954 , -2.97546386719 , 5.83648681641 , -1.06811523438 
2018/05/14 21:09:59.815380 , -0.1953125 , 0.044921875 , 4.244140625 , 7.34700854701 , 10.4957264957 , -113.953601954 , -2.97546386719 , 5.83648681641 , -1.06811523438 
2018/05/14 21:10:00.107746 , -0.1953125 , 0.044921875 , 4.244140625 , 7.34700854701 , 10.4957264957 , -113.953601954 , -2.97546386719 , 5.83648681641 , -1.06811523438 
2018/05/14 21:10:00.400318 , -0.1953125 , 0.044921875 , 4.244140625 , 7.34700854701 , 10.4957264957 , -113.953601954 , -4.40216064453 , 4.39453125 , -0.114440917969 
2018/05/14 21:10:00.692737 , 0.091796875 , 0.1201171875 , 4.123046875 , 7.19706959707 , 10.6456654457 , -113.353846154 , -4.40216064453 , 4.39453125 , -0.114440917969 
2018/05/14 21:10:00.985234 , 0.091796875 , 0.1201171875 , 4.123046875 , 7.19706959707 , 10.6456654457 , -113.353846154 , -4.40216064453 , 4.39453125 , -0.114440917969 
2018/05/14 21:10:01.277752 , 0.091796875 , 0.1201171875 , 4.123046875 , 7.19706959707 , 10.6456654457 , -113.353846154 , -4.40216064453 , 4.39453125 , -0.114440917969 
2018/05/14 21:10:01.570288 , -0.0517578125 , 0.1416015625 , 3.970703125 , 7.79682539683 , 12.1450549451 , -113.803663004 , -3.662109375 , 5.56945800781 , 0.91552734375 
2018/05/14 21:10:01.862783 , -0.0517578125 , 0.1416015625 , 3.970703125 , 7.79682539683 , 12.1450549451 , -113.803663004 , -3.662109375 , 5.56945800781 , 0.91552734375 
2018/05/14 21:10:02.155252 , -0.0517578125 , 0.1416015625 , 3.970703125 , 7.79682539683 , 12.1450549451 , -113.803663004 , -3.662109375 , 5.56945800781 , 0.91552734375 
2018/05/14 21:10:02.496514 , -0.0517578125 , 0.1416015625 , 3.970703125 , 6.74725274725 , 11.0954822955 , -112.004395604 , -4.21142578125 , 5.02014160156 , 0.0534057617188 
2018/05/14 21:10:02.789027 , -0.0078125 , 0.00390625 , 4.060546875 , 6.74725274725 , 11.0954822955 , -112.004395604 , -4.21142578125 , 5.02014160156 , 0.0534057617188 
2018/05/14 21:10:03.081530 , -0.0078125 , 0.00390625 , 4.060546875 , 6.74725274725 , 11.0954822955 , -112.004395604 , -4.21142578125 , 5.02014160156 , 0.0534057617188 
2018/05/14 21:10:03.374028 , -0.0078125 , 0.00390625 , 4.060546875 , 6.74725274725 , 11.0954822955 , -112.004395604 , -4.48608398438 , 4.29534912109 , -0.167846679688 
2018/05/14 21:10:03.715375 , 0.005859375 , 0.16015625 , 4.1123046875 , 7.49694749695 , 12.4449328449 , -113.053968254 , -4.48608398438 , 4.29534912109 , -0.167846679688 
2018/05/14 21:10:04.007871 , 0.005859375 , 0.16015625 , 4.1123046875 , 7.49694749695 , 12.4449328449 , -113.053968254 , -4.48608398438 , 4.29534912109 , -0.167846679688 
2018/05/14 21:10:04.300420 , 0.005859375 , 0.16015625 , 4.1123046875 , 7.49694749695 , 12.4449328449 , -113.053968254 , -4.48608398438 , 4.29534912109 , -0.167846679688 
2018/05/14 21:10:04.592808 , -0.228515625 , 0.1240234375 , 4.0732421875 , 7.34700854701 , 12.294993895 , -113.203907204 , -4.69970703125 , 4.69207763672 , -1.12152099609 
2018/05/14 21:10:04.885279 , -0.228515625 , 0.1240234375 , 4.0732421875 , 7.34700854701 , 12.294993895 , -113.203907204 , -4.69970703125 , 4.69207763672 , -1.12152099609 
2018/05/14 21:10:05.177786 , -0.228515625 , 0.1240234375 , 4.0732421875 , 7.34700854701 , 12.294993895 , -113.203907204 , -4.69970703125 , 4.69207763672 , -1.12152099609 
2018/05/14 21:10:05.470384 , -0.228515625 , 0.1240234375 , 4.0732421875 , 8.54652014652 , 11.6952380952 , -111.704517705 , -6.16455078125 , 4.50134277344 , -0.244140625 
2018/05/14 21:10:05.762936 , -0.0908203125 , 0.1171875 , 4.0537109375 , 8.54652014652 , 11.6952380952 , -111.704517705 , -6.16455078125 , 4.50134277344 , -0.244140625 
2018/05/14 21:10:06.055321 , -0.0908203125 , 0.1171875 , 4.0537109375 , 8.54652014652 , 11.6952380952 , -111.704517705 , -6.16455078125 , 4.50134277344 , -0.244140625 
2018/05/14 21:10:06.347790 , -0.0908203125 , 0.1171875 , 4.0537109375 , 8.54652014652 , 11.6952380952 , -111.704517705 , -6.16455078125 , 4.50134277344 , -0.244140625 
2018/05/14 21:10:06.640348 , 0.087890625 , 0.255859375 , 4.224609375 , 8.54652014652 , 11.6952380952 , -111.704517705 , -5.18035888672 , 4.18090820312 , -2.98309326172 
2018/05/14 21:10:06.932806 , 0.087890625 , 0.255859375 , 4.224609375 , 8.54652014652 , 11.6952380952 , -111.704517705 , -5.18035888672 , 4.18090820312 , -2.98309326172 
2018/05/14 21:10:07.225310 , 0.087890625 , 0.255859375 , 4.224609375 , 8.54652014652 , 11.6952380952 , -111.704517705 , -5.18035888672 , 4.18090820312 , -2.98309326172 
2018/05/14 21:10:07.517933 , 0.087890625 , 0.255859375 , 4.224609375 , 6.89719169719 , 10.1958485958 , -112.604151404 , -4.92095947266 , 6.09588623047 , -2.77709960938 
2018/05/14 21:10:07.810374 , -0.04296875 , -0.1044921875 , 4.23828125 , 6.89719169719 , 10.1958485958 , -112.604151404 , -4.92095947266 , 6.09588623047 , -2.77709960938 
2018/05/14 21:10:08.102838 , -0.04296875 , -0.1044921875 , 4.23828125 , 6.89719169719 , 10.1958485958 , -112.604151404 , -4.92095947266 , 6.09588623047 , -2.77709960938 
2018/05/14 21:10:08.395321 , -0.04296875 , -0.1044921875 , 4.23828125 , 6.89719169719 , 10.1958485958 , -112.604151404 , -5.37109375 , 5.82122802734 , 0.0381469726562 
2018/05/14 21:10:08.687834 , 0.2431640625 , 0.1484375 , 4.302734375 , 6.89719169719 , 10.1958485958 , -112.604151404 , -5.37109375 , 5.82122802734 , 0.0381469726562 
2018/05/14 21:10:08.980360 , 0.2431640625 , 0.1484375 , 4.302734375 , 6.89719169719 , 10.1958485958 , -112.604151404 , -5.37109375 , 5.82122802734 , 0.0381469726562 
2018/05/14 21:10:09.370604 , 0.2431640625 , 0.1484375 , 4.302734375 , 6.89719169719 , 10.1958485958 , -112.604151404 , -3.662109375 , 4.06646728516 , -0.0762939453125 
2018/05/14 21:10:09.662858 , -0.1845703125 , 0.01953125 , 4.083984375 , 6.29743589744 , 12.5948717949 , -113.953601954 , -3.662109375 , 4.06646728516 , -0.0762939453125 
2018/05/14 21:10:09.955393 , -0.1845703125 , 0.01953125 , 4.083984375 , 6.29743589744 , 12.5948717949 , -113.953601954 , -3.662109375 , 4.06646728516 , -0.0762939453125 
2018/05/14 21:10:10.247835 , -0.1845703125 , 0.01953125 , 4.083984375 , 6.29743589744 , 12.5948717949 , -113.953601954 , -3.662109375 , 4.06646728516 , -0.0762939453125 
2018/05/14 21:10:10.540406 , -0.1845703125 , 0.01953125 , 4.083984375 , 6.29743589744 , 12.5948717949 , -113.953601954 , -5.14984130859 , 3.67736816406 , 0.289916992188 
2018/05/14 21:10:10.832839 , -0.1103515625 , 0.3935546875 , 4.0185546875 , 6.29743589744 , 12.5948717949 , -113.953601954 , -5.14984130859 , 3.67736816406 , 0.289916992188 
2018/05/14 21:10:11.125344 , -0.1103515625 , 0.3935546875 , 4.0185546875 , 6.29743589744 , 12.5948717949 , -113.953601954 , -5.14984130859 , 3.67736816406 , 0.289916992188 
2018/05/14 21:10:11.417811 , -0.1103515625 , 0.3935546875 , 4.0185546875 , 6.29743589744 , 12.5948717949 , -113.953601954 , -4.45556640625 , 3.64685058594 , -0.839233398438 
2018/05/14 21:10:11.710382 , 0.001953125 , 0.201171875 , 4.119140625 , 6.1474969475 , 11.0954822955 , -111.704517705 , -4.45556640625 , 3.64685058594 , -0.839233398438 
2018/05/14 21:10:12.002841 , 0.001953125 , 0.201171875 , 4.119140625 , 6.1474969475 , 11.0954822955 , -111.704517705 , -4.45556640625 , 3.64685058594 , -0.839233398438 
2018/05/14 21:10:12.295352 , 0.001953125 , 0.201171875 , 4.119140625 , 6.1474969475 , 11.0954822955 , -111.704517705 , -4.45556640625 , 3.64685058594 , -0.839233398438 
2018/05/14 21:10:12.587847 , 0.0107421875 , 0.220703125 , 3.9736328125 , 6.1474969475 , 11.0954822955 , -111.704517705 , -3.66973876953 , 3.15856933594 , -0.984191894531 
2018/05/14 21:10:12.880367 , 0.0107421875 , 0.220703125 , 3.9736328125 , 6.1474969475 , 11.0954822955 , -111.704517705 , -3.66973876953 , 3.15856933594 , -0.984191894531 
2018/05/14 21:10:13.172825 , 0.0107421875 , 0.220703125 , 3.9736328125 , 6.1474969475 , 11.0954822955 , -111.704517705 , -3.66973876953 , 3.15856933594 , -0.984191894531 
2018/05/14 21:10:13.465336 , 0.0107421875 , 0.220703125 , 3.9736328125 , 6.1474969475 , 11.0954822955 , -111.704517705 , -4.60052490234 , 5.40924072266 , -0.289916992188 
2018/05/14 21:10:13.757849 , -0.068359375 , 0.2861328125 , 4.0185546875 , 6.1474969475 , 11.0954822955 , -111.704517705 , -4.60052490234 , 5.40924072266 , -0.289916992188 
2018/05/14 21:10:14.050513 , -0.068359375 , 0.2861328125 , 4.0185546875 , 6.1474969475 , 11.0954822955 , -111.704517705 , -4.60052490234 , 5.40924072266 , -0.289916992188 
2018/05/14 21:10:14.342880 , -0.068359375 , 0.2861328125 , 4.0185546875 , 6.1474969475 , 11.0954822955 , -111.704517705 , -4.60052490234 , 5.40924072266 , -0.289916992188 
2018/05/14 21:10:14.635486 , 0.16796875 , 0.2109375 , 4.146484375 , 6.59731379731 , 11.5452991453 , -113.653724054 , -4.53948974609 , 3.76129150391 , -1.02233886719 
2018/05/14 21:10:15.025596 , 0.16796875 , 0.2109375 , 4.146484375 , 6.59731379731 , 11.5452991453 , -113.653724054 , -4.53948974609 , 3.76129150391 , -1.02233886719 
2018/05/14 21:10:15.317885 , 0.16796875 , 0.2109375 , 4.146484375 , 6.59731379731 , 11.5452991453 , -113.653724054 , -4.53948974609 , 3.76129150391 , -1.02233886719 
2018/05/14 21:10:15.610473 , -0.0947265625 , 0.048828125 , 4.130859375 , 5.84761904762 , 12.5948717949 , -113.653724054 , -4.17327880859 , 5.03540039062 , 0.175476074219 
2018/05/14 21:10:15.902894 , -0.0947265625 , 0.048828125 , 4.130859375 , 5.84761904762 , 12.5948717949 , -113.653724054 , -4.17327880859 , 5.03540039062 , 0.175476074219 
2018/05/14 21:10:16.195367 , -0.0947265625 , 0.048828125 , 4.130859375 , 5.84761904762 , 12.5948717949 , -113.653724054 , -4.17327880859 , 5.03540039062 , 0.175476074219 
2018/05/14 21:10:16.487901 , -0.0947265625 , 0.048828125 , 4.130859375 , 5.84761904762 , 12.5948717949 , -113.653724054 , -4.21142578125 , 5.56945800781 , -0.755310058594 
2018/05/14 21:10:16.780409 , -0.0654296875 , 0.1201171875 , 4.123046875 , 5.84761904762 , 12.5948717949 , -113.653724054 , -4.21142578125 , 5.56945800781 , -0.755310058594 
2018/05/14 21:10:17.072879 , -0.0654296875 , 0.1201171875 , 4.123046875 , 5.84761904762 , 12.5948717949 , -113.653724054 , -4.21142578125 , 5.56945800781 , -0.755310058594 
2018/05/14 21:10:17.365371 , -0.0654296875 , 0.1201171875 , 4.123046875 , 5.84761904762 , 12.5948717949 , -113.653724054 , -4.21142578125 , 5.56945800781 , -0.755310058594 
2018/05/14 21:10:17.657868 , 0.05859375 , 0.0048828125 , 4.2158203125 , 5.84761904762 , 12.5948717949 , -113.653724054 , -4.11224365234 , 4.31060791016 , -1.00708007812 
2018/05/14 21:10:17.950447 , 0.05859375 , 0.0048828125 , 4.2158203125 , 5.84761904762 , 12.5948717949 , -113.653724054 , -4.11224365234 , 4.31060791016 , -1.00708007812 
2018/05/14 21:10:18.242899 , 0.05859375 , 0.0048828125 , 4.2158203125 , 5.84761904762 , 12.5948717949 , -113.653724054 , -4.11224365234 , 4.31060791016 , -1.00708007812 
2018/05/14 21:10:18.535394 , 0.05859375 , 0.0048828125 , 4.2158203125 , 6.89719169719 , 10.1958485958 , -111.854456654 , -3.95965576172 , 5.19561767578 , 0.343322753906 
2018/05/14 21:10:18.827880 , -0.19921875 , 0.0234375 , 4.318359375 , 6.89719169719 , 10.1958485958 , -111.854456654 , -3.95965576172 , 5.19561767578 , 0.343322753906 
2018/05/14 21:10:19.120425 , -0.19921875 , 0.0234375 , 4.318359375 , 6.89719169719 , 10.1958485958 , -111.854456654 , -3.95965576172 , 5.19561767578 , 0.343322753906 
2018/05/14 21:10:19.412887 , -0.19921875 , 0.0234375 , 4.318359375 , 6.89719169719 , 10.1958485958 , -111.854456654 , -4.85229492188 , 7.07244873047 , 0.137329101562 
2018/05/14 21:10:19.705406 , 0.0888671875 , 0.0029296875 , 3.87109375 , 6.74725274725 , 10.6456654457 , -114.403418803 , -4.85229492188 , 7.07244873047 , 0.137329101562 
2018/05/14 21:10:19.997901 , 0.0888671875 , 0.0029296875 , 3.87109375 , 6.74725274725 , 10.6456654457 , -114.403418803 , -4.85229492188 , 7.07244873047 , 0.137329101562 
2018/05/14 21:10:20.290445 , 0.0888671875 , 0.0029296875 , 3.87109375 , 6.74725274725 , 10.6456654457 , -114.403418803 , -4.85229492188 , 7.07244873047 , 0.137329101562 
2018/05/14 21:10:20.632037 , -0.1201171875 , 0.1630859375 , 4.0625 , 7.64688644689 , 12.294993895 , -112.604151404 , -5.10406494141 , 5.36346435547 , 0.190734863281 
2018/05/14 21:10:20.924223 , -0.1201171875 , 0.1630859375 , 4.0625 , 7.64688644689 , 12.294993895 , -112.604151404 , -5.10406494141 , 5.36346435547 , 0.190734863281 
2018/05/14 21:10:21.265729 , -0.1201171875 , 0.1630859375 , 4.0625 , 7.64688644689 , 12.294993895 , -112.604151404 , -5.10406494141 , 5.36346435547 , 0.190734863281 
2018/05/14 21:10:21.557916 , -0.1201171875 , 0.1630859375 , 4.0625 , 6.74725274725 , 12.4449328449 , -112.754090354 , -2.88391113281 , 6.43920898438 , 0.381469726562 
2018/05/14 21:10:21.850439 , 0.0986328125 , 0.140625 , 4.31640625 , 6.74725274725 , 12.4449328449 , -112.754090354 , -2.88391113281 , 6.43920898438 , 0.381469726562 
2018/05/14 21:10:22.142934 , 0.0986328125 , 0.140625 , 4.31640625 , 6.74725274725 , 12.4449328449 , -112.754090354 , -2.88391113281 , 6.43920898438 , 0.381469726562 
2018/05/14 21:10:22.435394 , 0.0986328125 , 0.140625 , 4.31640625 , 6.74725274725 , 12.4449328449 , -112.754090354 , -4.73785400391 , 6.11877441406 , -0.18310546875 
2018/05/14 21:10:22.727923 , 0.09375 , 0.1103515625 , 4.2021484375 , 6.59731379731 , 9.74603174603 , -112.154334554 , -4.73785400391 , 6.11877441406 , -0.18310546875 
2018/05/14 21:10:23.020455 , 0.09375 , 0.1103515625 , 4.2021484375 , 6.59731379731 , 9.74603174603 , -112.154334554 , -4.73785400391 , 6.11877441406 , -0.18310546875 
2018/05/14 21:10:23.312902 , 0.09375 , 0.1103515625 , 4.2021484375 , 6.59731379731 , 9.74603174603 , -112.154334554 , -4.73785400391 , 6.11877441406 , -0.18310546875 
2018/05/14 21:10:23.605413 , -0.0390625 , 0.12109375 , 3.984375 , 6.1474969475 , 10.3457875458 , -114.403418803 , -3.7841796875 , 3.5400390625 , 0.778198242188 
2018/05/14 21:10:23.897919 , -0.0390625 , 0.12109375 , 3.984375 , 6.1474969475 , 10.3457875458 , -114.403418803 , -3.7841796875 , 3.5400390625 , 0.778198242188 
2018/05/14 21:10:24.190472 , -0.0390625 , 0.12109375 , 3.984375 , 6.1474969475 , 10.3457875458 , -114.403418803 , -3.7841796875 , 3.5400390625 , 0.778198242188 
2018/05/14 21:10:24.482926 , -0.0390625 , 0.12109375 , 3.984375 , 4.94798534799 , 12.4449328449 , -112.454212454 , -3.85284423828 , 4.66156005859 , -0.373840332031 
2018/05/14 21:10:24.775444 , 0.02734375 , 0.09375 , 4.3076171875 , 4.94798534799 , 12.4449328449 , -112.454212454 , -3.85284423828 , 4.66156005859 , -0.373840332031 
2018/05/14 21:10:25.067896 , 0.02734375 , 0.09375 , 4.3076171875 , 4.94798534799 , 12.4449328449 , -112.454212454 , -3.85284423828 , 4.66156005859 , -0.373840332031 
2018/05/14 21:10:25.360467 , 0.02734375 , 0.09375 , 4.3076171875 , 4.94798534799 , 12.4449328449 , -112.454212454 , -3.85284423828 , 4.66156005859 , -0.373840332031 
2018/05/14 21:10:25.652917 , -0.11328125 , 0.2275390625 , 4.3876953125 , 6.44737484737 , 10.6456654457 , -112.004395604 , -4.46319580078 , 5.01251220703 , -1.83868408203 
2018/05/14 21:10:25.945413 , -0.11328125 , 0.2275390625 , 4.3876953125 , 6.44737484737 , 10.6456654457 , -112.004395604 , -4.46319580078 , 5.01251220703 , -1.83868408203 
2018/05/14 21:10:26.286929 , -0.11328125 , 0.2275390625 , 4.3876953125 , 6.44737484737 , 10.6456654457 , -112.004395604 , -4.46319580078 , 5.01251220703 , -1.83868408203 
2018/05/14 21:10:26.579237 , -0.1474609375 , 0.0791015625 , 4.1171875 , 6.59731379731 , 11.5452991453 , -112.904029304 , -5.05828857422 , 4.89807128906 , -0.587463378906 
2018/05/14 21:10:26.920876 , -0.1474609375 , 0.0791015625 , 4.1171875 , 6.59731379731 , 11.5452991453 , -112.904029304 , -5.05828857422 , 4.89807128906 , -0.587463378906 
2018/05/14 21:10:27.213311 , -0.1474609375 , 0.0791015625 , 4.1171875 , 6.59731379731 , 11.5452991453 , -112.904029304 , -5.05828857422 , 4.89807128906 , -0.587463378906 
2018/05/14 21:10:27.505450 , -0.1474609375 , 0.0791015625 , 4.1171875 , 6.29743589744 , 11.5452991453 , -112.154334554 , -2.78472900391 , 3.71551513672 , 0.923156738281 
2018/05/14 21:10:27.797976 , -0.0751953125 , 0.1455078125 , 4.2978515625 , 6.29743589744 , 11.5452991453 , -112.154334554 , -2.78472900391 , 3.71551513672 , 0.923156738281 
2018/05/14 21:10:28.090486 , -0.0751953125 , 0.1455078125 , 4.2978515625 , 6.29743589744 , 11.5452991453 , -112.154334554 , -2.78472900391 , 3.71551513672 , 0.923156738281 
2018/05/14 21:10:28.382956 , -0.0751953125 , 0.1455078125 , 4.2978515625 , 6.29743589744 , 11.5452991453 , -112.154334554 , -3.7841796875 , 5.126953125 , -0.0839233398438 
2018/05/14 21:10:28.675457 , -0.1728515625 , 0.1416015625 , 4.3056640625 , 7.64688644689 , 13.0446886447 , -113.203907204 , -3.7841796875 , 5.126953125 , -0.0839233398438 
2018/05/14 21:10:28.967967 , -0.1728515625 , 0.1416015625 , 4.3056640625 , 7.64688644689 , 13.0446886447 , -113.203907204 , -3.7841796875 , 5.126953125 , -0.0839233398438 
2018/05/14 21:10:29.260516 , -0.1728515625 , 0.1416015625 , 4.3056640625 , 7.64688644689 , 13.0446886447 , -113.203907204 , -3.7841796875 , 5.126953125 , -0.0839233398438 
2018/05/14 21:10:29.552976 , -0.1728515625 , 0.1416015625 , 4.3056640625 , 7.79682539683 , 11.0954822955 , -112.454212454 , -3.92913818359 , 4.66156005859 , 0.694274902344 
2018/05/14 21:10:29.845472 , -0.0185546875 , 0.1669921875 , 4.2431640625 , 7.79682539683 , 11.0954822955 , -112.454212454 , -3.92913818359 , 4.66156005859 , 0.694274902344 
2018/05/14 21:10:30.137953 , -0.0185546875 , 0.1669921875 , 4.2431640625 , 7.79682539683 , 11.0954822955 , -112.454212454 , -3.92913818359 , 4.66156005859 , 0.694274902344 
2018/05/14 21:10:30.430524 , -0.0185546875 , 0.1669921875 , 4.2431640625 , 7.79682539683 , 11.0954822955 , -112.454212454 , -4.50897216797 , 4.66918945312 , 0.785827636719 
2018/05/14 21:10:30.722994 , -0.0703125 , 0.0478515625 , 4.2919921875 , 6.59731379731 , 10.1958485958 , -112.904029304 , -4.50897216797 , 4.66918945312 , 0.785827636719 
2018/05/14 21:10:31.015501 , -0.0703125 , 0.0478515625 , 4.2919921875 , 6.59731379731 , 10.1958485958 , -112.904029304 , -4.50897216797 , 4.66918945312 , 0.785827636719 
2018/05/14 21:10:31.307986 , -0.0703125 , 0.0478515625 , 4.2919921875 , 6.59731379731 , 10.1958485958 , -112.904029304 , -4.50897216797 , 4.66918945312 , 0.785827636719 
2018/05/14 21:10:31.600508 , 0.0244140625 , 0.044921875 , 4.23828125 , 5.84761904762 , 10.7956043956 , -111.254700855 , -2.99835205078 , 4.92858886719 , 0.930786132812 
2018/05/14 21:10:31.990807 , 0.0244140625 , 0.044921875 , 4.23828125 , 5.84761904762 , 10.7956043956 , -111.254700855 , -2.99835205078 , 4.92858886719 , 0.930786132812 
2018/05/14 21:10:32.283036 , 0.0244140625 , 0.044921875 , 4.23828125 , 5.84761904762 , 10.7956043956 , -111.254700855 , -2.99835205078 , 4.92858886719 , 0.930786132812 
2018/05/14 21:10:32.575580 , -0.203125 , 0.103515625 , 4.3720703125 , 7.34700854701 , 11.5452991453 , -110.804884005 , -4.97436523438 , 4.47845458984 , -0.946044921875 
2018/05/14 21:10:32.867974 , -0.203125 , 0.103515625 , 4.3720703125 , 7.34700854701 , 11.5452991453 , -110.804884005 , -4.97436523438 , 4.47845458984 , -0.946044921875 
2018/05/14 21:10:33.160538 , -0.203125 , 0.103515625 , 4.3720703125 , 7.34700854701 , 11.5452991453 , -110.804884005 , -4.97436523438 , 4.47845458984 , -0.946044921875 
2018/05/14 21:10:33.453000 , -0.203125 , 0.103515625 , 4.3720703125 , 7.34700854701 , 11.5452991453 , -110.804884005 , -3.53240966797 , 4.13513183594 , 0.274658203125 
2018/05/14 21:10:33.745495 , -0.130859375 , -0.029296875 , 4.1767578125 , 7.94676434676 , 12.294993895 , -111.554578755 , -3.53240966797 , 4.13513183594 , 0.274658203125 
2018/05/14 21:10:34.038007 , -0.130859375 , -0.029296875 , 4.1767578125 , 7.94676434676 , 12.294993895 , -111.554578755 , -3.53240966797 , 4.13513183594 , 0.274658203125 
2018/05/14 21:10:34.330524 , -0.130859375 , -0.029296875 , 4.1767578125 , 7.94676434676 , 12.294993895 , -111.554578755 , -3.53240966797 , 4.13513183594 , 0.274658203125 
2018/05/14 21:10:34.623041 , 0.220703125 , 0.06640625 , 4.1455078125 , 4.94798534799 , 11.3953601954 , -112.754090354 , -4.81414794922 , 5.94329833984 , -0.0152587890625 
2018/05/14 21:10:34.915502 , 0.220703125 , 0.06640625 , 4.1455078125 , 4.94798534799 , 11.3953601954 , -112.754090354 , -4.81414794922 , 5.94329833984 , -0.0152587890625 
2018/05/14 21:10:35.208020 , 0.220703125 , 0.06640625 , 4.1455078125 , 4.94798534799 , 11.3953601954 , -112.754090354 , -4.81414794922 , 5.94329833984 , -0.0152587890625 
2018/05/14 21:10:35.500527 , 0.220703125 , 0.06640625 , 4.1455078125 , 6.44737484737 , 9.29621489621 , -110.355067155 , -5.03540039062 , 4.44030761719 , -0.282287597656 
2018/05/14 21:10:35.793027 , -0.140625 , 0.3203125 , 4.189453125 , 6.44737484737 , 9.29621489621 , -110.355067155 , -5.03540039062 , 4.44030761719 , -0.282287597656 
2018/05/14 21:10:36.085509 , -0.140625 , 0.3203125 , 4.189453125 , 6.44737484737 , 9.29621489621 , -110.355067155 , -5.03540039062 , 4.44030761719 , -0.282287597656 
2018/05/14 21:10:36.378033 , -0.140625 , 0.3203125 , 4.189453125 , 6.44737484737 , 9.29621489621 , -110.355067155 , -4.7607421875 , 5.64575195312 , 0.350952148438 
2018/05/14 21:10:36.670569 , -0.0244140625 , 0.0400390625 , 4.1787109375 , 6.59731379731 , 13.0446886447 , -111.854456654 , -4.7607421875 , 5.64575195312 , 0.350952148438 
2018/05/14 21:10:36.963027 , -0.0244140625 , 0.0400390625 , 4.1787109375 , 6.59731379731 , 13.0446886447 , -111.854456654 , -4.7607421875 , 5.64575195312 , 0.350952148438 
2018/05/14 21:10:37.255557 , -0.0244140625 , 0.0400390625 , 4.1787109375 , 6.59731379731 , 13.0446886447 , -111.854456654 , -4.7607421875 , 5.64575195312 , 0.350952148438 
2018/05/14 21:10:37.645837 , -0.08203125 , 0.1689453125 , 4.232421875 , 7.19706959707 , 12.4449328449 , -112.754090354 , -5.19561767578 , 4.79125976562 , 0.48828125 
2018/05/14 21:10:37.938081 , -0.08203125 , 0.1689453125 , 4.232421875 , 7.19706959707 , 12.4449328449 , -112.754090354 , -5.19561767578 , 4.79125976562 , 0.48828125 
2018/05/14 21:10:38.230698 , -0.08203125 , 0.1689453125 , 4.232421875 , 7.19706959707 , 12.4449328449 , -112.754090354 , -5.19561767578 , 4.79125976562 , 0.48828125 
2018/05/14 21:10:38.523041 , -0.08203125 , 0.1689453125 , 4.232421875 , 7.34700854701 , 11.5452991453 , -112.604151404 , -4.638671875 , 3.66973876953 , 0.724792480469 
2018/05/14 21:10:38.815546 , -0.0771484375 , -0.0595703125 , 4.2294921875 , 7.34700854701 , 11.5452991453 , -112.604151404 , -4.638671875 , 3.66973876953 , 0.724792480469 
2018/05/14 21:10:39.108016 , -0.0771484375 , -0.0595703125 , 4.2294921875 , 7.34700854701 , 11.5452991453 , -112.604151404 , -4.638671875 , 3.66973876953 , 0.724792480469 
2018/05/14 21:10:39.400560 , -0.0771484375 , -0.0595703125 , 4.2294921875 , 7.34700854701 , 11.5452991453 , -112.604151404 , -3.10516357422 , 5.29479980469 , -0.434875488281 
2018/05/14 21:10:39.693020 , -0.232421875 , 0.279296875 , 4.2705078125 , 6.74725274725 , 11.6952380952 , -112.454212454 , -3.10516357422 , 5.29479980469 , -0.434875488281 
2018/05/14 21:10:39.985516 , -0.232421875 , 0.279296875 , 4.2705078125 , 6.74725274725 , 11.6952380952 , -112.454212454 , -3.10516357422 , 5.29479980469 , -0.434875488281 
2018/05/14 21:10:40.278048 , -0.232421875 , 0.279296875 , 4.2705078125 , 6.74725274725 , 11.6952380952 , -112.454212454 , -3.10516357422 , 5.29479980469 , -0.434875488281 
2018/05/14 21:10:40.570535 , 0.001953125 , 0.2568359375 , 4.123046875 , 7.64688644689 , 10.4957264957 , -113.953601954 , -5.48553466797 , 3.42559814453 , -2.48718261719 
2018/05/14 21:10:40.863073 , 0.001953125 , 0.2568359375 , 4.123046875 , 7.64688644689 , 10.4957264957 , -113.953601954 , -5.48553466797 , 3.42559814453 , -2.48718261719 
2018/05/14 21:10:41.155541 , 0.001953125 , 0.2568359375 , 4.123046875 , 7.64688644689 , 10.4957264957 , -113.953601954 , -5.48553466797 , 3.42559814453 , -2.48718261719 
2018/05/14 21:10:41.496804 , 0.001953125 , 0.2568359375 , 4.123046875 , 6.74725274725 , 12.1450549451 , -113.053968254 , -4.89807128906 , 5.13458251953 , -0.320434570312 
2018/05/14 21:10:41.789325 , 0.0263671875 , -0.037109375 , 4.0576171875 , 6.74725274725 , 12.1450549451 , -113.053968254 , -4.89807128906 , 5.13458251953 , -0.320434570312 
2018/05/14 21:10:42.081826 , 0.0263671875 , -0.037109375 , 4.0576171875 , 6.74725274725 , 12.1450549451 , -113.053968254 , -4.89807128906 , 5.13458251953 , -0.320434570312 
2018/05/14 21:10:42.374324 , 0.0263671875 , -0.037109375 , 4.0576171875 , 6.74725274725 , 12.1450549451 , -113.053968254 , -6.2255859375 , 3.74603271484 , -1.43432617188 
2018/05/14 21:10:42.666808 , 0.009765625 , 0.28515625 , 4.1611328125 , 7.19706959707 , 12.1450549451 , -112.004395604 , -6.2255859375 , 3.74603271484 , -1.43432617188 
2018/05/14 21:10:42.959332 , 0.009765625 , 0.28515625 , 4.1611328125 , 7.19706959707 , 12.1450549451 , -112.004395604 , -6.2255859375 , 3.74603271484 , -1.43432617188 
2018/05/14 21:10:43.300641 , 0.009765625 , 0.28515625 , 4.1611328125 , 7.19706959707 , 12.1450549451 , -112.004395604 , -6.2255859375 , 3.74603271484 , -1.43432617188 
2018/05/14 21:10:43.593153 , 0.2333984375 , -0.0068359375 , 4.0966796875 , 7.19706959707 , 12.4449328449 , -113.053968254 , -4.02069091797 , 4.08172607422 , 1.27410888672 
2018/05/14 21:10:43.885601 , 0.2333984375 , -0.0068359375 , 4.0966796875 , 7.19706959707 , 12.4449328449 , -113.053968254 , -4.02069091797 , 4.08172607422 , 1.27410888672 
2018/05/14 21:10:44.178061 , 0.2333984375 , -0.0068359375 , 4.0966796875 , 7.19706959707 , 12.4449328449 , -113.053968254 , -4.02069091797 , 4.08172607422 , 1.27410888672 
2018/05/14 21:10:44.470593 , 0.2333984375 , -0.0068359375 , 4.0966796875 , 7.79682539683 , 10.3457875458 , -111.704517705 , -4.5166015625 , 4.96673583984 , 1.02996826172 
2018/05/14 21:10:44.763069 , -0.0498046875 , 0.0244140625 , 4.392578125 , 7.79682539683 , 10.3457875458 , -111.704517705 , -4.5166015625 , 4.96673583984 , 1.02996826172 
2018/05/14 21:10:45.055576 , -0.0498046875 , 0.0244140625 , 4.392578125 , 7.79682539683 , 10.3457875458 , -111.704517705 , -4.5166015625 , 4.96673583984 , 1.02996826172 
2018/05/14 21:10:45.348062 , -0.0498046875 , 0.0244140625 , 4.392578125 , 7.79682539683 , 10.3457875458 , -111.704517705 , -4.5166015625 , 4.96673583984 , 1.02996826172 
2018/05/14 21:10:45.640583 , -0.0556640625 , 0.265625 , 4.2626953125 , 5.69768009768 , 11.6952380952 , -112.754090354 , -3.06701660156 , 4.87518310547 , 1.42669677734 
2018/05/14 21:10:45.933079 , -0.0556640625 , 0.265625 , 4.2626953125 , 5.69768009768 , 11.6952380952 , -112.754090354 , -3.06701660156 , 4.87518310547 , 1.42669677734 
2018/05/14 21:10:46.225575 , -0.0556640625 , 0.265625 , 4.2626953125 , 5.69768009768 , 11.6952380952 , -112.754090354 , -3.06701660156 , 4.87518310547 , 1.42669677734 
2018/05/14 21:10:46.518065 , -0.0556640625 , 0.265625 , 4.2626953125 , 7.64688644689 , 12.294993895 , -111.854456654 , -5.66101074219 , 4.97436523438 , -0.350952148438 
2018/05/14 21:10:46.810600 , -0.18359375 , 0.0029296875 , 4.0771484375 , 7.64688644689 , 12.294993895 , -111.854456654 , -5.66101074219 , 4.97436523438 , -0.350952148438 
2018/05/14 21:10:47.103110 , -0.18359375 , 0.0029296875 , 4.0771484375 , 7.64688644689 , 12.294993895 , -111.854456654 , -5.66101074219 , 4.97436523438 , -0.350952148438 
2018/05/14 21:10:47.444348 , -0.18359375 , 0.0029296875 , 4.0771484375 , 7.64688644689 , 12.294993895 , -111.854456654 , -2.98309326172 , 3.80706787109 , 0.297546386719 
2018/05/14 21:10:47.736865 , -0.15234375 , -0.0869140625 , 4.1923828125 , 5.3978021978 , 13.4945054945 , -114.403418803 , -2.98309326172 , 3.80706787109 , 0.297546386719 
2018/05/14 21:10:48.029338 , -0.15234375 , -0.0869140625 , 4.1923828125 , 5.3978021978 , 13.4945054945 , -114.403418803 , -2.98309326172 , 3.80706787109 , 0.297546386719 
2018/05/14 21:10:48.321838 , -0.15234375 , -0.0869140625 , 4.1923828125 , 5.3978021978 , 13.4945054945 , -114.403418803 , -2.98309326172 , 3.80706787109 , 0.297546386719 
2018/05/14 21:10:48.614347 , -0.083984375 , -0.08984375 , 4.3203125 , 8.24664224664 , 11.3953601954 , -111.404639805 , -2.34222412109 , 4.24957275391 , -0.236511230469 
2018/05/14 21:10:48.955679 , -0.083984375 , -0.08984375 , 4.3203125 , 8.24664224664 , 11.3953601954 , -111.404639805 , -2.34222412109 , 4.24957275391 , -0.236511230469 
2018/05/14 21:10:49.248154 , -0.083984375 , -0.08984375 , 4.3203125 , 8.24664224664 , 11.3953601954 , -111.404639805 , -2.34222412109 , 4.24957275391 , -0.236511230469 
2018/05/14 21:10:49.589398 , -0.1298828125 , 0.333984375 , 4.0166015625 , 8.24664224664 , 11.3953601954 , -111.404639805 , -4.44793701172 , 4.55474853516 , -0.0381469726562 
2018/05/14 21:10:49.882026 , -0.1298828125 , 0.333984375 , 4.0166015625 , 8.24664224664 , 11.3953601954 , -111.404639805 , -4.44793701172 , 4.55474853516 , -0.0381469726562 
2018/05/14 21:10:50.174392 , -0.1298828125 , 0.333984375 , 4.0166015625 , 8.24664224664 , 11.3953601954 , -111.404639805 , -4.44793701172 , 4.55474853516 , -0.0381469726562 
2018/05/14 21:10:50.466873 , -0.1298828125 , 0.333984375 , 4.0166015625 , 6.59731379731 , 12.5948717949 , -112.904029304 , -4.22668457031 , 7.04956054688 , 0.0991821289062 
2018/05/14 21:10:50.759409 , 0.0810546875 , 0.1953125 , 4.0927734375 , 6.59731379731 , 12.5948717949 , -112.904029304 , -4.22668457031 , 7.04956054688 , 0.0991821289062 
2018/05/14 21:10:51.100668 , 0.0810546875 , 0.1953125 , 4.0927734375 , 6.59731379731 , 12.5948717949 , -112.904029304 , -4.22668457031 , 7.04956054688 , 0.0991821289062 
2018/05/14 21:10:51.393132 , 0.0810546875 , 0.1953125 , 4.0927734375 , 6.59731379731 , 12.5948717949 , -112.904029304 , -3.62396240234 , 4.23431396484 , -0.747680664062 
2018/05/14 21:10:51.685615 , -0.0732421875 , 0.103515625 , 4.150390625 , 6.59731379731 , 12.5948717949 , -112.904029304 , -3.62396240234 , 4.23431396484 , -0.747680664062 
2018/05/14 21:10:51.978139 , -0.0732421875 , 0.103515625 , 4.150390625 , 6.59731379731 , 12.5948717949 , -112.904029304 , -3.62396240234 , 4.23431396484 , -0.747680664062 
2018/05/14 21:10:52.270664 , -0.0732421875 , 0.103515625 , 4.150390625 , 6.59731379731 , 12.5948717949 , -112.904029304 , -3.62396240234 , 4.23431396484 , -0.747680664062 
2018/05/14 21:10:52.563131 , -0.0810546875 , 0.2119140625 , 4.0712890625 , 6.59731379731 , 11.8451770452 , -111.854456654 , -3.98254394531 , 4.53948974609 , 0.175476074219 
2018/05/14 21:10:52.855616 , -0.0810546875 , 0.2119140625 , 4.0712890625 , 6.59731379731 , 11.8451770452 , -111.854456654 , -3.98254394531 , 4.53948974609 , 0.175476074219 
2018/05/14 21:10:53.148139 , -0.0810546875 , 0.2119140625 , 4.0712890625 , 6.59731379731 , 11.8451770452 , -111.854456654 , -3.98254394531 , 4.53948974609 , 0.175476074219 
2018/05/14 21:10:53.440624 , -0.0810546875 , 0.2119140625 , 4.0712890625 , 6.59731379731 , 11.8451770452 , -111.854456654 , -4.46319580078 , 5.77545166016 , -0.846862792969 
2018/05/14 21:10:53.733133 , 0.1484375 , 0.1591796875 , 4.296875 , 6.59731379731 , 11.8451770452 , -111.854456654 , -4.46319580078 , 5.77545166016 , -0.846862792969 
2018/05/14 21:10:54.025633 , 0.1484375 , 0.1591796875 , 4.296875 , 6.59731379731 , 11.8451770452 , -111.854456654 , -4.46319580078 , 5.77545166016 , -0.846862792969 
2018/05/14 21:10:54.318115 , 0.1484375 , 0.1591796875 , 4.296875 , 6.59731379731 , 11.8451770452 , -111.854456654 , -4.02069091797 , 4.44793701172 , -3.12805175781 
2018/05/14 21:10:54.708244 , 0.08984375 , 0.078125 , 4.3330078125 , 6.59731379731 , 11.8451770452 , -111.854456654 , -4.02069091797 , 4.44793701172 , -3.12805175781 
2018/05/14 21:10:55.000663 , 0.08984375 , 0.078125 , 4.3330078125 , 6.59731379731 , 11.8451770452 , -111.854456654 , -4.02069091797 , 4.44793701172 , -3.12805175781 
2018/05/14 21:10:55.293147 , 0.08984375 , 0.078125 , 4.3330078125 , 6.59731379731 , 11.8451770452 , -111.854456654 , -4.02069091797 , 4.44793701172 , -3.12805175781 
2018/05/14 21:10:55.585622 , -0.0732421875 , -0.03125 , 4.2802734375 , 5.84761904762 , 9.14627594628 , -112.154334554 , -5.44738769531 , 5.60760498047 , -2.36511230469 
2018/05/14 21:10:55.878136 , -0.0732421875 , -0.03125 , 4.2802734375 , 5.84761904762 , 9.14627594628 , -112.154334554 , -5.44738769531 , 5.60760498047 , -2.36511230469 
2018/05/14 21:10:56.170655 , -0.0732421875 , -0.03125 , 4.2802734375 , 5.84761904762 , 9.14627594628 , -112.154334554 , -5.44738769531 , 5.60760498047 , -2.36511230469 
2018/05/14 21:10:56.463157 , -0.0732421875 , -0.03125 , 4.2802734375 , 6.29743589744 , 11.5452991453 , -112.154334554 , -4.56237792969 , 5.75256347656 , -0.663757324219 
2018/05/14 21:10:56.755643 , -0.14453125 , 0.0751953125 , 4.251953125 , 6.29743589744 , 11.5452991453 , -112.154334554 , -4.56237792969 , 5.75256347656 , -0.663757324219 
2018/05/14 21:10:57.048148 , -0.14453125 , 0.0751953125 , 4.251953125 , 6.29743589744 , 11.5452991453 , -112.154334554 , -4.56237792969 , 5.75256347656 , -0.663757324219 
2018/05/14 21:10:57.340653 , -0.14453125 , 0.0751953125 , 4.251953125 , 6.29743589744 , 11.5452991453 , -112.154334554 , -5.92041015625 , 7.22503662109 , -0.907897949219 
2018/05/14 21:10:57.730690 , 0.078125 , 0.0537109375 , 4.0791015625 , 6.29743589744 , 11.5452991453 , -112.154334554 , -5.92041015625 , 7.22503662109 , -0.907897949219 
2018/05/14 21:10:58.023193 , 0.078125 , 0.0537109375 , 4.0791015625 , 6.29743589744 , 11.5452991453 , -112.154334554 , -5.92041015625 , 7.22503662109 , -0.907897949219 
2018/05/14 21:10:58.315664 , 0.078125 , 0.0537109375 , 4.0791015625 , 6.29743589744 , 11.5452991453 , -112.154334554 , -5.92041015625 , 7.22503662109 , -0.907897949219 
2018/05/14 21:10:58.608161 , -0.2138671875 , 0.212890625 , 4.1796875 , 6.29743589744 , 11.5452991453 , -112.154334554 , -4.2724609375 , 5.70678710938 , -0.579833984375 
2018/05/14 21:10:58.900649 , -0.2138671875 , 0.212890625 , 4.1796875 , 6.29743589744 , 11.5452991453 , -112.154334554 , -4.2724609375 , 5.70678710938 , -0.579833984375 
2018/05/14 21:10:59.193171 , -0.2138671875 , 0.212890625 , 4.1796875 , 6.29743589744 , 11.5452991453 , -112.154334554 , -4.2724609375 , 5.70678710938 , -0.579833984375 
2018/05/14 21:10:59.486638 , -0.2138671875 , 0.212890625 , 4.1796875 , 6.29743589744 , 10.7956043956 , -112.604151404 , -5.16510009766 , 3.54766845703 , -1.52587890625 
2018/05/14 21:10:59.826919 , 0.099609375 , 0.263671875 , 4.052734375 , 6.29743589744 , 10.7956043956 , -112.604151404 , -5.16510009766 , 3.54766845703 , -1.52587890625 
2018/05/14 21:11:00.168396 , 0.099609375 , 0.263671875 , 4.052734375 , 6.29743589744 , 10.7956043956 , -112.604151404 , -5.16510009766 , 3.54766845703 , -1.52587890625 
2018/05/14 21:11:00.460751 , 0.099609375 , 0.263671875 , 4.052734375 , 6.29743589744 , 10.7956043956 , -112.604151404 , -3.59344482422 , 5.87463378906 , -0.129699707031 
2018/05/14 21:11:00.753559 , -0.044921875 , 0.373046875 , 4.2568359375 , 6.74725274725 , 11.0954822955 , -112.004395604 , -3.59344482422 , 5.87463378906 , -0.129699707031 
2018/05/14 21:11:01.045707 , -0.044921875 , 0.373046875 , 4.2568359375 , 6.74725274725 , 11.0954822955 , -112.004395604 , -3.59344482422 , 5.87463378906 , -0.129699707031 
2018/05/14 21:11:01.338167 , -0.044921875 , 0.373046875 , 4.2568359375 , 6.74725274725 , 11.0954822955 , -112.004395604 , -3.59344482422 , 5.87463378906 , -0.129699707031 
2018/05/14 21:11:01.630739 , -0.1611328125 , -0.0009765625 , 4.3291015625 , 8.24664224664 , 11.6952380952 , -112.754090354 , -3.35693359375 , 5.56945800781 , 0.198364257812 
2018/05/14 21:11:01.923197 , -0.1611328125 , -0.0009765625 , 4.3291015625 , 8.24664224664 , 11.6952380952 , -112.754090354 , -3.35693359375 , 5.56945800781 , 0.198364257812 
2018/05/14 21:11:02.215730 , -0.1611328125 , -0.0009765625 , 4.3291015625 , 8.24664224664 , 11.6952380952 , -112.754090354 , -3.35693359375 , 5.56945800781 , 0.198364257812 
2018/05/14 21:11:02.508206 , -0.1611328125 , -0.0009765625 , 4.3291015625 , 8.39658119658 , 11.5452991453 , -110.505006105 , -3.57055664062 , 5.40924072266 , 0.282287597656 
2018/05/14 21:11:02.800709 , 0.0791015625 , 0.0390625 , 4.3203125 , 8.39658119658 , 11.5452991453 , -110.505006105 , -3.57055664062 , 5.40924072266 , 0.282287597656 
2018/05/14 21:11:03.093199 , 0.0791015625 , 0.0390625 , 4.3203125 , 8.39658119658 , 11.5452991453 , -110.505006105 , -3.57055664062 , 5.40924072266 , 0.282287597656 
2018/05/14 21:11:03.385691 , 0.0791015625 , 0.0390625 , 4.3203125 , 8.39658119658 , 11.5452991453 , -110.505006105 , -4.04357910156 , 4.2724609375 , 0.663757324219 
2018/05/14 21:11:03.678184 , -0.16015625 , 0.154296875 , 4.2919921875 , 7.49694749695 , 11.6952380952 , -112.004395604 , -4.04357910156 , 4.2724609375 , 0.663757324219 
2018/05/14 21:11:03.970698 , -0.16015625 , 0.154296875 , 4.2919921875 , 7.49694749695 , 11.6952380952 , -112.004395604 , -4.04357910156 , 4.2724609375 , 0.663757324219 
2018/05/14 21:11:04.263220 , -0.16015625 , 0.154296875 , 4.2919921875 , 7.49694749695 , 11.6952380952 , -112.004395604 , -4.04357910156 , 4.2724609375 , 0.663757324219 
2018/05/14 21:11:04.555707 , -0.16015625 , 0.154296875 , 4.2919921875 , 5.3978021978 , 11.6952380952 , -112.004395604 , -4.53186035156 , 4.37927246094 , -0.808715820312 
2018/05/14 21:11:04.848215 , 0.095703125 , 0.1865234375 , 4.150390625 , 5.3978021978 , 11.6952380952 , -112.004395604 , -4.53186035156 , 4.37927246094 , -0.808715820312 
2018/05/14 21:11:05.140883 , 0.095703125 , 0.1865234375 , 4.150390625 , 5.3978021978 , 11.6952380952 , -112.004395604 , -4.53186035156 , 4.37927246094 , -0.808715820312 
2018/05/14 21:11:05.433222 , 0.095703125 , 0.1865234375 , 4.150390625 , 5.3978021978 , 11.6952380952 , -112.004395604 , -4.83703613281 , 6.06536865234 , 0.930786132812 
2018/05/14 21:11:05.725723 , 0.0546875 , 0.1884765625 , 4.1064453125 , 7.64688644689 , 11.5452991453 , -113.953601954 , -4.83703613281 , 6.06536865234 , 0.930786132812 
2018/05/14 21:11:06.115784 , 0.0546875 , 0.1884765625 , 4.1064453125 , 7.64688644689 , 11.5452991453 , -113.953601954 , -4.83703613281 , 6.06536865234 , 0.930786132812 
2018/05/14 21:11:06.408615 , 0.0546875 , 0.1884765625 , 4.1064453125 , 7.64688644689 , 11.5452991453 , -113.953601954 , -4.39453125 , 5.05828857422 , -1.20544433594 
2018/05/14 21:11:06.700717 , 0.103515625 , 0.234375 , 4.251953125 , 5.24786324786 , 10.1958485958 , -110.804884005 , -4.39453125 , 5.05828857422 , -1.20544433594 
2018/05/14 21:11:06.993233 , 0.103515625 , 0.234375 , 4.251953125 , 5.24786324786 , 10.1958485958 , -110.804884005 , -4.39453125 , 5.05828857422 , -1.20544433594 
2018/05/14 21:11:07.285715 , 0.103515625 , 0.234375 , 4.251953125 , 5.24786324786 , 10.1958485958 , -110.804884005 , -4.39453125 , 5.05828857422 , -1.20544433594 
2018/05/14 21:11:07.578236 , 0.08203125 , 0.1357421875 , 4.34765625 , 8.69645909646 , 11.8451770452 , -112.154334554 , -5.83648681641 , 5.58471679688 , 1.39617919922 
2018/05/14 21:11:07.870783 , 0.08203125 , 0.1357421875 , 4.34765625 , 8.69645909646 , 11.8451770452 , -112.154334554 , -5.83648681641 , 5.58471679688 , 1.39617919922 
2018/05/14 21:11:08.163260 , 0.08203125 , 0.1357421875 , 4.34765625 , 8.69645909646 , 11.8451770452 , -112.154334554 , -5.83648681641 , 5.58471679688 , 1.39617919922 
2018/05/14 21:11:08.455780 , 0.08203125 , 0.1357421875 , 4.34765625 , 8.69645909646 , 11.8451770452 , -112.154334554 , -3.10516357422 , 3.20434570312 , -0.152587890625 
2018/05/14 21:11:08.748257 , -0.0966796875 , 0.005859375 , 3.9921875 , 7.19706959707 , 11.3953601954 , -112.754090354 , -3.10516357422 , 3.20434570312 , -0.152587890625 
2018/05/14 21:11:09.040786 , -0.0966796875 , 0.005859375 , 3.9921875 , 7.19706959707 , 11.3953601954 , -112.754090354 , -3.10516357422 , 3.20434570312 , -0.152587890625 
2018/05/14 21:11:09.333237 , -0.0966796875 , 0.005859375 , 3.9921875 , 7.19706959707 , 11.3953601954 , -112.754090354 , -3.10516357422 , 3.20434570312 , -0.152587890625 
2018/05/14 21:11:09.625753 , 0.1806640625 , -0.05078125 , 4.1923828125 , 7.49694749695 , 10.3457875458 , -111.404639805 , -5.14984130859 , 4.48608398438 , 0.877380371094 
2018/05/14 21:11:09.918239 , 0.1806640625 , -0.05078125 , 4.1923828125 , 7.49694749695 , 10.3457875458 , -111.404639805 , -5.14984130859 , 4.48608398438 , 0.877380371094 
2018/05/14 21:11:10.210767 , 0.1806640625 , -0.05078125 , 4.1923828125 , 7.49694749695 , 10.3457875458 , -111.404639805 , -5.14984130859 , 4.48608398438 , 0.877380371094 
2018/05/14 21:11:10.503300 , 0.1806640625 , -0.05078125 , 4.1923828125 , 7.19706959707 , 10.3457875458 , -113.053968254 , -3.81469726562 , 5.09643554688 , -1.18255615234 
2018/05/14 21:11:10.795771 , 0.0517578125 , 0.3818359375 , 4.2021484375 , 7.19706959707 , 10.3457875458 , -113.053968254 , -3.81469726562 , 5.09643554688 , -1.18255615234 
2018/05/14 21:11:11.088325 , 0.0517578125 , 0.3818359375 , 4.2021484375 , 7.19706959707 , 10.3457875458 , -113.053968254 , -3.81469726562 , 5.09643554688 , -1.18255615234 
2018/05/14 21:11:11.380775 , 0.0517578125 , 0.3818359375 , 4.2021484375 , 6.74725274725 , 12.1450549451 , -113.053968254 , -3.89099121094 , 4.69207763672 , -0.0839233398438 
2018/05/14 21:11:11.770851 , 0.009765625 , 0.1337890625 , 3.9912109375 , 6.74725274725 , 12.1450549451 , -113.053968254 , -3.89099121094 , 4.69207763672 , -0.0839233398438 
2018/05/14 21:11:12.064565 , 0.009765625 , 0.1337890625 , 3.9912109375 , 6.74725274725 , 12.1450549451 , -113.053968254 , -3.89099121094 , 4.69207763672 , -0.0839233398438 
2018/05/14 21:11:12.355932 , 0.009765625 , 0.1337890625 , 3.9912109375 , 6.74725274725 , 12.1450549451 , -113.053968254 , -3.89099121094 , 4.69207763672 , -0.0839233398438 
2018/05/14 21:11:12.648309 , -0.2626953125 , 0.173828125 , 4.001953125 , 7.94676434676 , 12.5948717949 , -112.154334554 , -5.58471679688 , 4.31060791016 , -0.175476074219 
2018/05/14 21:11:12.940763 , -0.2626953125 , 0.173828125 , 4.001953125 , 7.94676434676 , 12.5948717949 , -112.154334554 , -5.58471679688 , 4.31060791016 , -0.175476074219 
2018/05/14 21:11:13.233283 , -0.2626953125 , 0.173828125 , 4.001953125 , 7.94676434676 , 12.5948717949 , -112.154334554 , -5.58471679688 , 4.31060791016 , -0.175476074219 
2018/05/14 21:11:13.525797 , -0.2626953125 , 0.173828125 , 4.001953125 , 7.94676434676 , 12.294993895 , -111.854456654 , -5.16510009766 , 6.32476806641 , -0.00762939453125 
2018/05/14 21:11:13.818257 , -0.01171875 , 0.16796875 , 4.2529296875 , 7.94676434676 , 12.294993895 , -111.854456654 , -5.16510009766 , 6.32476806641 , -0.00762939453125 
2018/05/14 21:11:14.110790 , -0.01171875 , 0.16796875 , 4.2529296875 , 7.94676434676 , 12.294993895 , -111.854456654 , -5.16510009766 , 6.32476806641 , -0.00762939453125 
2018/05/14 21:11:14.403265 , -0.01171875 , 0.16796875 , 4.2529296875 , 7.94676434676 , 12.294993895 , -111.854456654 , -2.18963623047 , 4.41741943359 , -0.160217285156 
2018/05/14 21:11:14.695794 , -0.1640625 , 0.0 , 4.2529296875 , 7.79682539683 , 11.0954822955 , -112.754090354 , -2.18963623047 , 4.41741943359 , -0.160217285156 
2018/05/14 21:11:14.988292 , -0.1640625 , 0.0 , 4.2529296875 , 7.79682539683 , 11.0954822955 , -112.754090354 , -2.18963623047 , 4.41741943359 , -0.160217285156 
2018/05/14 21:11:15.280788 , -0.1640625 , 0.0 , 4.2529296875 , 7.79682539683 , 11.0954822955 , -112.754090354 , -2.18963623047 , 4.41741943359 , -0.160217285156 
2018/05/14 21:11:15.573282 , 0.05078125 , 0.0263671875 , 4.38671875 , 7.79682539683 , 11.6952380952 , -110.654945055 , -3.95202636719 , 3.66973876953 , -1.12915039062 
2018/05/14 21:11:15.865791 , 0.05078125 , 0.0263671875 , 4.38671875 , 7.79682539683 , 11.6952380952 , -110.654945055 , -3.95202636719 , 3.66973876953 , -1.12915039062 
2018/05/14 21:11:16.158303 , 0.05078125 , 0.0263671875 , 4.38671875 , 7.79682539683 , 11.6952380952 , -110.654945055 , -3.95202636719 , 3.66973876953 , -1.12915039062 
2018/05/14 21:11:16.450806 , 0.05078125 , 0.0263671875 , 4.38671875 , 7.79682539683 , 11.6952380952 , -110.654945055 , -2.91442871094 , 4.66156005859 , -0.0762939453125 
2018/05/14 21:11:16.743309 , -0.224609375 , 0.1455078125 , 4.126953125 , 8.99633699634 , 12.294993895 , -110.505006105 , -2.91442871094 , 4.66156005859 , -0.0762939453125 
2018/05/14 21:11:17.035781 , -0.224609375 , 0.1455078125 , 4.126953125 , 8.99633699634 , 12.294993895 , -110.505006105 , -2.91442871094 , 4.66156005859 , -0.0762939453125 
2018/05/14 21:11:17.377112 , -0.224609375 , 0.1455078125 , 4.126953125 , 8.99633699634 , 12.294993895 , -110.505006105 , -2.37274169922 , 4.20379638672 , -0.6103515625 
2018/05/14 21:11:17.669795 , 0.22265625 , 0.1494140625 , 4.1513671875 , 7.49694749695 , 11.3953601954 , -110.654945055 , -2.37274169922 , 4.20379638672 , -0.6103515625 
2018/05/14 21:11:18.010961 , 0.22265625 , 0.1494140625 , 4.1513671875 , 7.49694749695 , 11.3953601954 , -110.654945055 , -2.37274169922 , 4.20379638672 , -0.6103515625 
2018/05/14 21:11:18.303323 , 0.22265625 , 0.1494140625 , 4.1513671875 , 7.49694749695 , 11.3953601954 , -110.654945055 , -2.37274169922 , 4.20379638672 , -0.6103515625 
2018/05/14 21:11:18.595789 , -0.05859375 , 0.23046875 , 3.9404296875 , 6.59731379731 , 11.5452991453 , -112.904029304 , -4.11224365234 , 4.63104248047 , 1.84631347656 
2018/05/14 21:11:18.888327 , -0.05859375 , 0.23046875 , 3.9404296875 , 6.59731379731 , 11.5452991453 , -112.904029304 , -4.11224365234 , 4.63104248047 , 1.84631347656 
2018/05/14 21:11:19.180798 , -0.05859375 , 0.23046875 , 3.9404296875 , 6.59731379731 , 11.5452991453 , -112.904029304 , -4.11224365234 , 4.63104248047 , 1.84631347656 
2018/05/14 21:11:19.474300 , -0.05859375 , 0.23046875 , 3.9404296875 , 7.49694749695 , 9.59609279609 , -112.004395604 , -5.45501708984 , 4.37927246094 , -0.709533691406 
2018/05/14 21:11:19.765821 , -0.201171875 , 0.2392578125 , 4.0625 , 7.49694749695 , 9.59609279609 , -112.004395604 , -5.45501708984 , 4.37927246094 , -0.709533691406 
2018/05/14 21:11:20.058299 , -0.201171875 , 0.2392578125 , 4.0625 , 7.49694749695 , 9.59609279609 , -112.004395604 , -5.45501708984 , 4.37927246094 , -0.709533691406 
2018/05/14 21:11:20.350813 , -0.201171875 , 0.2392578125 , 4.0625 , 7.49694749695 , 9.59609279609 , -112.004395604 , -5.45501708984 , 4.37927246094 , -0.709533691406 
2018/05/14 21:11:20.643310 , 0.0439453125 , 0.1689453125 , 4.04296875 , 7.34700854701 , 11.8451770452 , -111.854456654 , -5.42449951172 , 4.89807128906 , 1.78527832031 
2018/05/14 21:11:20.935810 , 0.0439453125 , 0.1689453125 , 4.04296875 , 7.34700854701 , 11.8451770452 , -111.854456654 , -5.42449951172 , 4.89807128906 , 1.78527832031 
2018/05/14 21:11:21.228325 , 0.0439453125 , 0.1689453125 , 4.04296875 , 7.34700854701 , 11.8451770452 , -111.854456654 , -5.42449951172 , 4.89807128906 , 1.78527832031 
2018/05/14 21:11:21.520825 , 0.0439453125 , 0.1689453125 , 4.04296875 , 6.1474969475 , 11.6952380952 , -111.704517705 , -5.03540039062 , 5.35583496094 , -0.816345214844 
2018/05/14 21:11:21.813330 , 0.1767578125 , 0.1611328125 , 4.275390625 , 6.1474969475 , 11.6952380952 , -111.704517705 , -5.03540039062 , 5.35583496094 , -0.816345214844 
2018/05/14 21:11:22.105830 , 0.1767578125 , 0.1611328125 , 4.275390625 , 6.1474969475 , 11.6952380952 , -111.704517705 , -5.03540039062 , 5.35583496094 , -0.816345214844 
2018/05/14 21:11:22.398328 , 0.1767578125 , 0.1611328125 , 4.275390625 , 6.1474969475 , 11.6952380952 , -111.704517705 , -4.85992431641 , 6.21032714844 , -1.80053710938 
2018/05/14 21:11:22.690837 , 0.037109375 , 0.2109375 , 3.982421875 , 6.59731379731 , 11.2454212454 , -113.203907204 , -4.85992431641 , 6.21032714844 , -1.80053710938 
2018/05/14 21:11:22.983421 , 0.037109375 , 0.2109375 , 3.982421875 , 6.59731379731 , 11.2454212454 , -113.203907204 , -4.85992431641 , 6.21032714844 , -1.80053710938 
2018/05/14 21:11:23.275888 , 0.037109375 , 0.2109375 , 3.982421875 , 6.59731379731 , 11.2454212454 , -113.203907204 , -4.85992431641 , 6.21032714844 , -1.80053710938 
2018/05/14 21:11:23.568377 , 0.0244140625 , 0.1181640625 , 4.0947265625 , 7.49694749695 , 11.0954822955 , -112.004395604 , -6.30187988281 , 6.15692138672 , -1.23596191406 
2018/05/14 21:11:23.860842 , 0.0244140625 , 0.1181640625 , 4.0947265625 , 7.49694749695 , 11.0954822955 , -112.004395604 , -6.30187988281 , 6.15692138672 , -1.23596191406 
2018/05/14 21:11:24.153345 , 0.0244140625 , 0.1181640625 , 4.0947265625 , 7.49694749695 , 11.0954822955 , -112.004395604 , -6.30187988281 , 6.15692138672 , -1.23596191406 
2018/05/14 21:11:24.445844 , 0.0244140625 , 0.1181640625 , 4.0947265625 , 7.49694749695 , 11.0954822955 , -112.004395604 , -4.05120849609 , 4.59289550781 , -1.78527832031 
2018/05/14 21:11:24.738354 , -0.0380859375 , 0.150390625 , 4.1376953125 , 5.84761904762 , 10.7956043956 , -112.604151404 , -4.05120849609 , 4.59289550781 , -1.78527832031 
2018/05/14 21:11:25.030852 , -0.0380859375 , 0.150390625 , 4.1376953125 , 5.84761904762 , 10.7956043956 , -112.604151404 , -4.05120849609 , 4.59289550781 , -1.78527832031 
2018/05/14 21:11:25.323347 , -0.0380859375 , 0.150390625 , 4.1376953125 , 5.84761904762 , 10.7956043956 , -112.604151404 , -4.05120849609 , 4.59289550781 , -1.78527832031 
2018/05/14 21:11:25.615872 , 0.0234375 , 0.1806640625 , 4.0029296875 , 6.44737484737 , 8.8463980464 , -110.355067155 , -2.88391113281 , 3.83758544922 , 0.778198242188 
2018/05/14 21:11:25.908391 , 0.0234375 , 0.1806640625 , 4.0029296875 , 6.44737484737 , 8.8463980464 , -110.355067155 , -2.88391113281 , 3.83758544922 , 0.778198242188 
2018/05/14 21:11:26.200929 , 0.0234375 , 0.1806640625 , 4.0029296875 , 6.44737484737 , 8.8463980464 , -110.355067155 , -2.88391113281 , 3.83758544922 , 0.778198242188 
2018/05/14 21:11:26.493385 , 0.0234375 , 0.1806640625 , 4.0029296875 , 6.29743589744 , 11.8451770452 , -111.854456654 , -1.96075439453 , 5.60760498047 , 1.02233886719 
2018/05/14 21:11:26.785860 , -0.0595703125 , 0.12890625 , 4.2451171875 , 6.29743589744 , 11.8451770452 , -111.854456654 , -1.96075439453 , 5.60760498047 , 1.02233886719 
2018/05/14 21:11:27.078367 , -0.0595703125 , 0.12890625 , 4.2451171875 , 6.29743589744 , 11.8451770452 , -111.854456654 , -1.96075439453 , 5.60760498047 , 1.02233886719 
2018/05/14 21:11:27.370857 , -0.0595703125 , 0.12890625 , 4.2451171875 , 6.29743589744 , 11.8451770452 , -111.854456654 , -4.28009033203 , 3.12805175781 , 0.617980957031 
2018/05/14 21:11:27.663382 , -0.1298828125 , -0.0537109375 , 3.892578125 , 6.74725274725 , 11.0954822955 , -112.454212454 , -4.28009033203 , 3.12805175781 , 0.617980957031 
2018/05/14 21:11:27.955888 , -0.1298828125 , -0.0537109375 , 3.892578125 , 6.74725274725 , 11.0954822955 , -112.454212454 , -4.28009033203 , 3.12805175781 , 0.617980957031 
2018/05/14 21:11:28.248381 , -0.1298828125 , -0.0537109375 , 3.892578125 , 6.74725274725 , 11.0954822955 , -112.454212454 , -4.28009033203 , 3.12805175781 , 0.617980957031 
2018/05/14 21:11:28.589722 , -0.15625 , 0.220703125 , 4.0478515625 , 7.64688644689 , 13.3445665446 , -113.653724054 , -4.35638427734 , 3.34167480469 , 1.0986328125 
2018/05/14 21:11:28.882153 , -0.15625 , 0.220703125 , 4.0478515625 , 7.64688644689 , 13.3445665446 , -113.653724054 , -4.35638427734 , 3.34167480469 , 1.0986328125 
2018/05/14 21:11:29.223446 , -0.15625 , 0.220703125 , 4.0478515625 , 7.64688644689 , 13.3445665446 , -113.653724054 , -4.35638427734 , 3.34167480469 , 1.0986328125 
2018/05/14 21:11:29.515885 , -0.15625 , 0.220703125 , 4.0478515625 , 6.29743589744 , 12.294993895 , -112.604151404 , -5.01251220703 , 5.06591796875 , -3.48663330078 
2018/05/14 21:11:29.808381 , -0.044921875 , 0.3232421875 , 4.1572265625 , 6.29743589744 , 12.294993895 , -112.604151404 , -5.01251220703 , 5.06591796875 , -3.48663330078 
2018/05/14 21:11:30.100859 , -0.044921875 , 0.3232421875 , 4.1572265625 , 6.29743589744 , 12.294993895 , -112.604151404 , -5.01251220703 , 5.06591796875 , -3.48663330078 
2018/05/14 21:11:30.393370 , -0.044921875 , 0.3232421875 , 4.1572265625 , 6.29743589744 , 12.294993895 , -112.604151404 , -3.93676757812 , 4.89044189453 , 0.0991821289062 
2018/05/14 21:11:30.685890 , -0.142578125 , 0.04296875 , 4.423828125 , 6.29743589744 , 12.294993895 , -112.604151404 , -3.93676757812 , 4.89044189453 , 0.0991821289062 
2018/05/14 21:11:30.978405 , -0.142578125 , 0.04296875 , 4.423828125 , 6.29743589744 , 12.294993895 , -112.604151404 , -3.93676757812 , 4.89044189453 , 0.0991821289062 
2018/05/14 21:11:31.271046 , -0.142578125 , 0.04296875 , 4.423828125 , 6.29743589744 , 12.294993895 , -112.604151404 , -3.93676757812 , 4.89044189453 , 0.0991821289062 
2018/05/14 21:11:31.612168 , 0.0654296875 , 0.0546875 , 4.1884765625 , 7.64688644689 , 11.8451770452 , -112.604151404 , -4.68444824219 , 4.16564941406 , 0.228881835938 
2018/05/14 21:11:31.904657 , 0.0654296875 , 0.0546875 , 4.1884765625 , 7.64688644689 , 11.8451770452 , -112.604151404 , -4.68444824219 , 4.16564941406 , 0.228881835938 
2018/05/14 21:11:32.197147 , 0.0654296875 , 0.0546875 , 4.1884765625 , 7.64688644689 , 11.8451770452 , -112.604151404 , -4.68444824219 , 4.16564941406 , 0.228881835938 
2018/05/14 21:11:32.489660 , 0.0654296875 , 0.0546875 , 4.1884765625 , 7.64688644689 , 11.8451770452 , -112.604151404 , -4.95147705078 , 6.24084472656 , -1.45721435547 
2018/05/14 21:11:32.782311 , -0.03515625 , 0.2958984375 , 4.0244140625 , 7.64688644689 , 11.8451770452 , -112.604151404 , -4.95147705078 , 6.24084472656 , -1.45721435547 
2018/05/14 21:11:33.074649 , -0.03515625 , 0.2958984375 , 4.0244140625 , 7.64688644689 , 11.8451770452 , -112.604151404 , -4.95147705078 , 6.24084472656 , -1.45721435547 
2018/05/14 21:11:33.367162 , -0.03515625 , 0.2958984375 , 4.0244140625 , 7.64688644689 , 11.8451770452 , -112.604151404 , -4.44030761719 , 4.87518310547 , 0.511169433594 
2018/05/14 21:11:33.659657 , 0.1669921875 , 0.0380859375 , 4.21484375 , 8.24664224664 , 10.6456654457 , -112.754090354 , -4.44030761719 , 4.87518310547 , 0.511169433594 
2018/05/14 21:11:33.952150 , 0.1669921875 , 0.0380859375 , 4.21484375 , 8.24664224664 , 10.6456654457 , -112.754090354 , -4.44030761719 , 4.87518310547 , 0.511169433594 
2018/05/14 21:11:34.293483 , 0.1669921875 , 0.0380859375 , 4.21484375 , 8.24664224664 , 10.6456654457 , -112.754090354 , -4.44030761719 , 4.87518310547 , 0.511169433594 
2018/05/14 21:11:34.585948 , 0.3349609375 , 0.123046875 , 4.0498046875 , 8.24664224664 , 10.6456654457 , -112.754090354 , -3.18145751953 , 4.62341308594 , -0.144958496094 
2018/05/14 21:11:34.878463 , 0.3349609375 , 0.123046875 , 4.0498046875 , 8.24664224664 , 10.6456654457 , -112.754090354 , -3.18145751953 , 4.62341308594 , -0.144958496094 
2018/05/14 21:11:35.170922 , 0.3349609375 , 0.123046875 , 4.0498046875 , 8.24664224664 , 10.6456654457 , -112.754090354 , -3.18145751953 , 4.62341308594 , -0.144958496094 
2018/05/14 21:11:35.463464 , 0.3349609375 , 0.123046875 , 4.0498046875 , 5.84761904762 , 11.8451770452 , -113.653724054 , -5.13458251953 , 4.00543212891 , -0.442504882812 
2018/05/14 21:11:35.755946 , -0.0615234375 , 0.255859375 , 4.3291015625 , 5.84761904762 , 11.8451770452 , -113.653724054 , -5.13458251953 , 4.00543212891 , -0.442504882812 
2018/05/14 21:11:36.048442 , -0.0615234375 , 0.255859375 , 4.3291015625 , 5.84761904762 , 11.8451770452 , -113.653724054 , -5.13458251953 , 4.00543212891 , -0.442504882812 
2018/05/14 21:11:36.340947 , -0.0615234375 , 0.255859375 , 4.3291015625 , 5.84761904762 , 11.8451770452 , -113.653724054 , -5.13458251953 , 4.00543212891 , -0.442504882812 
2018/05/14 21:11:36.633437 , 0.0068359375 , 0.091796875 , 4.1943359375 , 5.84761904762 , 11.8451770452 , -113.653724054 , -2.99835205078 , 2.65502929688 , -1.41906738281 
2018/05/14 21:11:36.925937 , 0.0068359375 , 0.091796875 , 4.1943359375 , 5.84761904762 , 11.8451770452 , -113.653724054 , -2.99835205078 , 2.65502929688 , -1.41906738281 
2018/05/14 21:11:37.218433 , 0.0068359375 , 0.091796875 , 4.1943359375 , 5.84761904762 , 11.8451770452 , -113.653724054 , -2.99835205078 , 2.65502929688 , -1.41906738281 
2018/05/14 21:11:37.510943 , 0.0068359375 , 0.091796875 , 4.1943359375 , 5.84761904762 , 11.8451770452 , -113.653724054 , -3.35693359375 , 3.92913818359 , 0.144958496094 
2018/05/14 21:11:37.803485 , 0.0703125 , 0.23046875 , 3.94140625 , 5.84761904762 , 11.8451770452 , -113.653724054 , -3.35693359375 , 3.92913818359 , 0.144958496094 
2018/05/14 21:11:38.095962 , 0.0703125 , 0.23046875 , 3.94140625 , 5.84761904762 , 11.8451770452 , -113.653724054 , -3.35693359375 , 3.92913818359 , 0.144958496094 
2018/05/14 21:11:38.388448 , 0.0703125 , 0.23046875 , 3.94140625 , 5.84761904762 , 11.8451770452 , -113.653724054 , -4.87518310547 , 3.53240966797 , 0.946044921875 
2018/05/14 21:11:38.680953 , 0.0009765625 , -0.0625 , 4.2548828125 , 7.49694749695 , 10.6456654457 , -112.004395604 , -4.87518310547 , 3.53240966797 , 0.946044921875 
2018/05/14 21:11:38.973449 , 0.0009765625 , -0.0625 , 4.2548828125 , 7.49694749695 , 10.6456654457 , -112.004395604 , -4.87518310547 , 3.53240966797 , 0.946044921875 
2018/05/14 21:11:39.265950 , 0.0009765625 , -0.0625 , 4.2548828125 , 7.49694749695 , 10.6456654457 , -112.004395604 , -4.87518310547 , 3.53240966797 , 0.946044921875 
2018/05/14 21:11:39.558443 , 0.0 , 0.1474609375 , 4.240234375 , 6.59731379731 , 10.4957264957 , -112.904029304 , -5.52368164062 , 3.30352783203 , -0.381469726562 
2018/05/14 21:11:39.851117 , 0.0 , 0.1474609375 , 4.240234375 , 6.59731379731 , 10.4957264957 , -112.904029304 , -5.52368164062 , 3.30352783203 , -0.381469726562 
2018/05/14 21:11:40.143541 , 0.0 , 0.1474609375 , 4.240234375 , 6.59731379731 , 10.4957264957 , -112.904029304 , -5.52368164062 , 3.30352783203 , -0.381469726562 
2018/05/14 21:11:40.436279 , 0.0 , 0.1474609375 , 4.240234375 , 6.59731379731 , 10.4957264957 , -112.904029304 , -4.8828125 , 5.47027587891 , -1.19781494141 
2018/05/14 21:11:40.728473 , -0.1494140625 , 0.1962890625 , 4.08984375 , 6.59731379731 , 10.4957264957 , -112.904029304 , -4.8828125 , 5.47027587891 , -1.19781494141 
2018/05/14 21:11:41.021113 , -0.1494140625 , 0.1962890625 , 4.08984375 , 6.59731379731 , 10.4957264957 , -112.904029304 , -4.8828125 , 5.47027587891 , -1.19781494141 
2018/05/14 21:11:41.313458 , -0.1494140625 , 0.1962890625 , 4.08984375 , 6.59731379731 , 10.4957264957 , -112.904029304 , -4.8828125 , 5.47027587891 , -1.19781494141 
2018/05/14 21:11:41.605960 , -0.1875 , 0.1533203125 , 4.1513671875 , 6.59731379731 , 10.4957264957 , -112.904029304 , -3.14331054688 , 3.37219238281 , -0.6103515625 
2018/05/14 21:11:41.898473 , -0.1875 , 0.1533203125 , 4.1513671875 , 6.59731379731 , 10.4957264957 , -112.904029304 , -3.14331054688 , 3.37219238281 , -0.6103515625 
2018/05/14 21:11:42.190985 , -0.1875 , 0.1533203125 , 4.1513671875 , 6.59731379731 , 10.4957264957 , -112.904029304 , -3.14331054688 , 3.37219238281 , -0.6103515625 
2018/05/14 21:11:42.483476 , -0.1875 , 0.1533203125 , 4.1513671875 , 4.49816849817 , 10.4957264957 , -113.653724054 , -4.32586669922 , 4.39453125 , 0.717163085938 
2018/05/14 21:11:42.775983 , -0.1357421875 , 0.0556640625 , 4.3408203125 , 4.49816849817 , 10.4957264957 , -113.653724054 , -4.32586669922 , 4.39453125 , 0.717163085938 
2018/05/14 21:11:43.068479 , -0.1357421875 , 0.0556640625 , 4.3408203125 , 4.49816849817 , 10.4957264957 , -113.653724054 , -4.32586669922 , 4.39453125 , 0.717163085938 
2018/05/14 21:11:43.360979 , -0.1357421875 , 0.0556640625 , 4.3408203125 , 4.49816849817 , 10.4957264957 , -113.653724054 , -4.37927246094 , 3.25775146484 , 0.503540039062 
2018/05/14 21:11:43.702225 , -0.1279296875 , -0.1337890625 , 4.1826171875 , 6.74725274725 , 11.6952380952 , -111.104761905 , -4.37927246094 , 3.25775146484 , 0.503540039062 
2018/05/14 21:11:43.994744 , -0.1279296875 , -0.1337890625 , 4.1826171875 , 6.74725274725 , 11.6952380952 , -111.104761905 , -4.37927246094 , 3.25775146484 , 0.503540039062 
2018/05/14 21:11:44.287263 , -0.1279296875 , -0.1337890625 , 4.1826171875 , 6.74725274725 , 11.6952380952 , -111.104761905 , -4.37927246094 , 3.25775146484 , 0.503540039062 
2018/05/14 21:11:44.579738 , -0.05859375 , 0.0390625 , 4.1923828125 , 7.19706959707 , 11.3953601954 , -112.004395604 , -5.03540039062 , 3.28826904297 , -0.228881835938 
2018/05/14 21:11:44.872248 , -0.05859375 , 0.0390625 , 4.1923828125 , 7.19706959707 , 11.3953601954 , -112.004395604 , -5.03540039062 , 3.28826904297 , -0.228881835938 
2018/05/14 21:11:45.164756 , -0.05859375 , 0.0390625 , 4.1923828125 , 7.19706959707 , 11.3953601954 , -112.004395604 , -5.03540039062 , 3.28826904297 , -0.228881835938 
2018/05/14 21:11:45.506182 , -0.05859375 , 0.0390625 , 4.1923828125 , 8.39658119658 , 10.7956043956 , -111.254700855 , -4.69207763672 , 5.05828857422 , 0.679016113281 
2018/05/14 21:11:45.798534 , -0.033203125 , 0.2265625 , 4.0263671875 , 8.39658119658 , 10.7956043956 , -111.254700855 , -4.69207763672 , 5.05828857422 , 0.679016113281 
2018/05/14 21:11:46.140191 , -0.033203125 , 0.2265625 , 4.0263671875 , 8.39658119658 , 10.7956043956 , -111.254700855 , -4.69207763672 , 5.05828857422 , 0.679016113281 
2018/05/14 21:11:46.432257 , -0.033203125 , 0.2265625 , 4.0263671875 , 8.39658119658 , 10.7956043956 , -111.254700855 , -3.46374511719 , 4.28009033203 , -0.984191894531 
2018/05/14 21:11:46.724761 , -0.12890625 , -0.1611328125 , 4.09375 , 7.64688644689 , 11.8451770452 , -112.604151404 , -3.46374511719 , 4.28009033203 , -0.984191894531 
2018/05/14 21:11:47.017241 , -0.12890625 , -0.1611328125 , 4.09375 , 7.64688644689 , 11.8451770452 , -112.604151404 , -3.46374511719 , 4.28009033203 , -0.984191894531 
2018/05/14 21:11:47.309752 , -0.12890625 , -0.1611328125 , 4.09375 , 7.64688644689 , 11.8451770452 , -112.604151404 , -3.46374511719 , 4.28009033203 , -0.984191894531 
2018/05/14 21:11:47.602238 , -0.0556640625 , 0.2587890625 , 4.185546875 , 6.44737484737 , 11.6952380952 , -111.404639805 , -5.47790527344 , 4.48608398438 , -1.36566162109 
2018/05/14 21:11:47.894789 , -0.0556640625 , 0.2587890625 , 4.185546875 , 6.44737484737 , 11.6952380952 , -111.404639805 , -5.47790527344 , 4.48608398438 , -1.36566162109 
2018/05/14 21:11:48.187262 , -0.0556640625 , 0.2587890625 , 4.185546875 , 6.44737484737 , 11.6952380952 , -111.404639805 , -5.47790527344 , 4.48608398438 , -1.36566162109 
2018/05/14 21:11:48.479789 , -0.0556640625 , 0.2587890625 , 4.185546875 , 7.19706959707 , 11.3953601954 , -112.754090354 , -4.99725341797 , 4.80651855469 , -1.18255615234 
2018/05/14 21:11:48.772272 , 0.083984375 , 0.12109375 , 4.1298828125 , 7.19706959707 , 11.3953601954 , -112.754090354 , -4.99725341797 , 4.80651855469 , -1.18255615234 
2018/05/14 21:11:49.064753 , 0.083984375 , 0.12109375 , 4.1298828125 , 7.19706959707 , 11.3953601954 , -112.754090354 , -4.99725341797 , 4.80651855469 , -1.18255615234 
2018/05/14 21:11:49.357253 , 0.083984375 , 0.12109375 , 4.1298828125 , 7.19706959707 , 11.3953601954 , -112.754090354 , -4.99725341797 , 4.80651855469 , -1.18255615234 
2018/05/14 21:11:49.649758 , 0.0517578125 , -0.083984375 , 4.337890625 , 6.29743589744 , 12.5948717949 , -112.154334554 , -5.24139404297 , 4.89044189453 , 0.6103515625 
2018/05/14 21:11:49.942271 , 0.0517578125 , -0.083984375 , 4.337890625 , 6.29743589744 , 12.5948717949 , -112.154334554 , -5.24139404297 , 4.89044189453 , 0.6103515625 
2018/05/14 21:11:50.234756 , 0.0517578125 , -0.083984375 , 4.337890625 , 6.29743589744 , 12.5948717949 , -112.154334554 , -5.24139404297 , 4.89044189453 , 0.6103515625 
2018/05/14 21:11:50.527280 , 0.0517578125 , -0.083984375 , 4.337890625 , 7.34700854701 , 13.0446886447 , -112.904029304 , -5.14984130859 , 4.31823730469 , 0.732421875 
2018/05/14 21:11:50.819766 , 0.04296875 , -0.0283203125 , 4.1826171875 , 7.34700854701 , 13.0446886447 , -112.904029304 , -5.14984130859 , 4.31823730469 , 0.732421875 
2018/05/14 21:11:51.161211 , 0.04296875 , -0.0283203125 , 4.1826171875 , 7.34700854701 , 13.0446886447 , -112.904029304 , -5.14984130859 , 4.31823730469 , 0.732421875 
2018/05/14 21:11:51.453591 , 0.04296875 , -0.0283203125 , 4.1826171875 , 7.34700854701 , 13.0446886447 , -112.904029304 , -4.5166015625 , 4.91333007812 , -0.106811523438 
2018/05/14 21:11:51.795198 , -0.126953125 , -0.068359375 , 4.15625 , 7.19706959707 , 10.3457875458 , -111.704517705 , -4.5166015625 , 4.91333007812 , -0.106811523438 
2018/05/14 21:11:52.087339 , -0.126953125 , -0.068359375 , 4.15625 , 7.19706959707 , 10.3457875458 , -111.704517705 , -4.5166015625 , 4.91333007812 , -0.106811523438 
2018/05/14 21:11:52.379809 , -0.126953125 , -0.068359375 , 4.15625 , 7.19706959707 , 10.3457875458 , -111.704517705 , -4.08935546875 , 5.0048828125 , 0.0457763671875 
2018/05/14 21:11:52.672296 , 0.033203125 , 0.0361328125 , 4.1943359375 , 6.44737484737 , 11.0954822955 , -112.004395604 , -4.08935546875 , 5.0048828125 , 0.0457763671875 
2018/05/14 21:11:52.964796 , 0.033203125 , 0.0361328125 , 4.1943359375 , 6.44737484737 , 11.0954822955 , -112.004395604 , -4.08935546875 , 5.0048828125 , 0.0457763671875 
2018/05/14 21:11:53.257294 , 0.033203125 , 0.0361328125 , 4.1943359375 , 6.44737484737 , 11.0954822955 , -112.004395604 , -4.08935546875 , 5.0048828125 , 0.0457763671875 
2018/05/14 21:11:53.549789 , 0.033203125 , 0.0361328125 , 4.1943359375 , 6.44737484737 , 12.1450549451 , -113.803663004 , -5.31005859375 , 5.01251220703 , -1.81579589844 
2018/05/14 21:11:53.842391 , -0.1513671875 , 0.029296875 , 4.2333984375 , 6.44737484737 , 12.1450549451 , -113.803663004 , -5.31005859375 , 5.01251220703 , -1.81579589844 
2018/05/14 21:11:54.134783 , -0.1513671875 , 0.029296875 , 4.2333984375 , 6.44737484737 , 12.1450549451 , -113.803663004 , -5.31005859375 , 5.01251220703 , -1.81579589844 
2018/05/14 21:11:54.427301 , -0.1513671875 , 0.029296875 , 4.2333984375 , 6.44737484737 , 12.1450549451 , -113.803663004 , -3.80706787109 , 5.27191162109 , 0.0228881835938 
2018/05/14 21:11:54.719844 , 0.1484375 , 0.15234375 , 4.208984375 , 6.89719169719 , 10.4957264957 , -111.854456654 , -3.80706787109 , 5.27191162109 , 0.0228881835938 
2018/05/14 21:11:55.012337 , 0.1484375 , 0.15234375 , 4.208984375 , 6.89719169719 , 10.4957264957 , -111.854456654 , -3.80706787109 , 5.27191162109 , 0.0228881835938 
2018/05/14 21:11:55.304821 , 0.1484375 , 0.15234375 , 4.208984375 , 6.89719169719 , 10.4957264957 , -111.854456654 , -3.80706787109 , 5.27191162109 , 0.0228881835938 
2018/05/14 21:11:55.597325 , -0.2607421875 , 0.2255859375 , 4.046875 , 8.24664224664 , 11.6952380952 , -112.004395604 , -4.09698486328 , 4.21905517578 , 0.404357910156 
2018/05/14 21:11:55.889824 , -0.2607421875 , 0.2255859375 , 4.046875 , 8.24664224664 , 11.6952380952 , -112.004395604 , -4.09698486328 , 4.21905517578 , 0.404357910156 
2018/05/14 21:11:56.182310 , -0.2607421875 , 0.2255859375 , 4.046875 , 8.24664224664 , 11.6952380952 , -112.004395604 , -4.09698486328 , 4.21905517578 , 0.404357910156 
2018/05/14 21:11:56.474819 , -0.2607421875 , 0.2255859375 , 4.046875 , 6.44737484737 , 11.3953601954 , -112.004395604 , -3.54766845703 , 4.14276123047 , 0.00762939453125 
2018/05/14 21:11:56.816325 , -0.287109375 , -0.0869140625 , 4.234375 , 6.44737484737 , 11.3953601954 , -112.004395604 , -3.54766845703 , 4.14276123047 , 0.00762939453125 
2018/05/14 21:11:57.108627 , -0.287109375 , -0.0869140625 , 4.234375 , 6.44737484737 , 11.3953601954 , -112.004395604 , -3.54766845703 , 4.14276123047 , 0.00762939453125 
2018/05/14 21:11:57.450264 , -0.287109375 , -0.0869140625 , 4.234375 , 6.44737484737 , 11.3953601954 , -112.004395604 , -4.638671875 , 6.69860839844 , 0.724792480469 
2018/05/14 21:11:57.742366 , -0.140625 , -0.0576171875 , 4.2607421875 , 6.59731379731 , 12.5948717949 , -112.154334554 , -4.638671875 , 6.69860839844 , 0.724792480469 
2018/05/14 21:11:58.034888 , -0.140625 , -0.0576171875 , 4.2607421875 , 6.59731379731 , 12.5948717949 , -112.154334554 , -4.638671875 , 6.69860839844 , 0.724792480469 
2018/05/14 21:11:58.327359 , -0.140625 , -0.0576171875 , 4.2607421875 , 6.59731379731 , 12.5948717949 , -112.154334554 , -4.638671875 , 6.69860839844 , 0.724792480469 
2018/05/14 21:11:58.619843 , -0.296875 , 0.017578125 , 4.1005859375 , 7.94676434676 , 10.1958485958 , -111.554578755 , -3.84521484375 , 4.79888916016 , -0.411987304688 
2018/05/14 21:11:58.912357 , -0.296875 , 0.017578125 , 4.1005859375 , 7.94676434676 , 10.1958485958 , -111.554578755 , -3.84521484375 , 4.79888916016 , -0.411987304688 
2018/05/14 21:11:59.204863 , -0.296875 , 0.017578125 , 4.1005859375 , 7.94676434676 , 10.1958485958 , -111.554578755 , -3.84521484375 , 4.79888916016 , -0.411987304688 
2018/05/14 21:11:59.497364 , -0.296875 , 0.017578125 , 4.1005859375 , 8.24664224664 , 11.3953601954 , -113.053968254 , -6.82067871094 , 7.36999511719 , -2.57873535156 
2018/05/14 21:11:59.789839 , -0.0703125 , 0.23828125 , 4.1318359375 , 8.24664224664 , 11.3953601954 , -113.053968254 , -6.82067871094 , 7.36999511719 , -2.57873535156 
2018/05/14 21:12:00.082353 , -0.0703125 , 0.23828125 , 4.1318359375 , 8.24664224664 , 11.3953601954 , -113.053968254 , -6.82067871094 , 7.36999511719 , -2.57873535156 
2018/05/14 21:12:00.374854 , -0.0703125 , 0.23828125 , 4.1318359375 , 8.24664224664 , 11.3953601954 , -113.053968254 , -4.97436523438 , 4.82940673828 , -1.86157226562 
2018/05/14 21:12:00.667388 , 0.189453125 , -0.0126953125 , 4.1083984375 , 8.54652014652 , 11.0954822955 , -111.404639805 , -4.97436523438 , 4.82940673828 , -1.86157226562 
2018/05/14 21:12:00.959893 , 0.189453125 , -0.0126953125 , 4.1083984375 , 8.54652014652 , 11.0954822955 , -111.404639805 , -4.97436523438 , 4.82940673828 , -1.86157226562 
2018/05/14 21:12:01.252360 , 0.189453125 , -0.0126953125 , 4.1083984375 , 8.54652014652 , 11.0954822955 , -111.404639805 , -4.97436523438 , 4.82940673828 , -1.86157226562 
2018/05/14 21:12:01.544882 , 0.189453125 , -0.0126953125 , 4.1083984375 , 7.49694749695 , 13.7943833944 , -113.053968254 , -4.98199462891 , 2.98309326172 , 0.79345703125 
2018/05/14 21:12:01.837359 , -0.076171875 , 0.298828125 , 4.2548828125 , 7.49694749695 , 13.7943833944 , -113.053968254 , -4.98199462891 , 2.98309326172 , 0.79345703125 
2018/05/14 21:12:02.129857 , -0.076171875 , 0.298828125 , 4.2548828125 , 7.49694749695 , 13.7943833944 , -113.053968254 , -4.98199462891 , 2.98309326172 , 0.79345703125 
2018/05/14 21:12:02.471310 , -0.076171875 , 0.298828125 , 4.2548828125 , 6.44737484737 , 10.6456654457 , -111.704517705 , -5.53131103516 , 4.75311279297 , -1.54113769531 
2018/05/14 21:12:02.763677 , -0.1025390625 , 0.205078125 , 4.115234375 , 6.44737484737 , 10.6456654457 , -111.704517705 , -5.53131103516 , 4.75311279297 , -1.54113769531 
2018/05/14 21:12:03.105277 , -0.1025390625 , 0.205078125 , 4.115234375 , 6.44737484737 , 10.6456654457 , -111.704517705 , -5.53131103516 , 4.75311279297 , -1.54113769531 
2018/05/14 21:12:03.397372 , -0.1025390625 , 0.205078125 , 4.115234375 , 6.44737484737 , 10.6456654457 , -111.704517705 , -3.25012207031 , 4.23431396484 , -0.091552734375 
2018/05/14 21:12:03.689867 , 0.0703125 , 0.1669921875 , 4.0263671875 , 5.84761904762 , 11.2454212454 , -113.653724054 , -3.25012207031 , 4.23431396484 , -0.091552734375 
2018/05/14 21:12:03.982365 , 0.0703125 , 0.1669921875 , 4.0263671875 , 5.84761904762 , 11.2454212454 , -113.653724054 , -3.25012207031 , 4.23431396484 , -0.091552734375 
2018/05/14 21:12:04.274880 , 0.0703125 , 0.1669921875 , 4.0263671875 , 5.84761904762 , 11.2454212454 , -113.653724054 , -3.25012207031 , 4.23431396484 , -0.091552734375 
2018/05/14 21:12:04.567379 , -0.1240234375 , 0.1396484375 , 4.1650390625 , 7.49694749695 , 12.4449328449 , -112.454212454 , -5.99670410156 , 5.93566894531 , -0.419616699219 
2018/05/14 21:12:04.859867 , -0.1240234375 , 0.1396484375 , 4.1650390625 , 7.49694749695 , 12.4449328449 , -112.454212454 , -5.99670410156 , 5.93566894531 , -0.419616699219 
2018/05/14 21:12:05.152361 , -0.1240234375 , 0.1396484375 , 4.1650390625 , 7.49694749695 , 12.4449328449 , -112.454212454 , -5.99670410156 , 5.93566894531 , -0.419616699219 
2018/05/14 21:12:05.444872 , -0.1240234375 , 0.1396484375 , 4.1650390625 , 7.49694749695 , 12.4449328449 , -112.454212454 , -5.07354736328 , 6.26373291016 , 1.06048583984 
2018/05/14 21:12:05.737390 , -0.1220703125 , -0.07421875 , 4.3681640625 , 7.64688644689 , 12.294993895 , -111.554578755 , -5.07354736328 , 6.26373291016 , 1.06048583984 
2018/05/14 21:12:06.029877 , -0.1220703125 , -0.07421875 , 4.3681640625 , 7.64688644689 , 12.294993895 , -111.554578755 , -5.07354736328 , 6.26373291016 , 1.06048583984 
2018/05/14 21:12:06.322383 , -0.1220703125 , -0.07421875 , 4.3681640625 , 7.64688644689 , 12.294993895 , -111.554578755 , -5.07354736328 , 6.26373291016 , 1.06048583984 
2018/05/14 21:12:06.614885 , 0.1767578125 , 0.0185546875 , 4.123046875 , 6.1474969475 , 11.3953601954 , -112.004395604 , -4.63104248047 , 2.79998779297 , -0.991821289062 
2018/05/14 21:12:06.907408 , 0.1767578125 , 0.0185546875 , 4.123046875 , 6.1474969475 , 11.3953601954 , -112.004395604 , -4.63104248047 , 2.79998779297 , -0.991821289062 
2018/05/14 21:12:07.199912 , 0.1767578125 , 0.0185546875 , 4.123046875 , 6.1474969475 , 11.3953601954 , -112.004395604 , -4.63104248047 , 2.79998779297 , -0.991821289062 
2018/05/14 21:12:07.492407 , 0.1767578125 , 0.0185546875 , 4.123046875 , 7.49694749695 , 12.7448107448 , -112.454212454 , -2.86102294922 , 5.52368164062 , -0.389099121094 
2018/05/14 21:12:07.784911 , 0.1591796875 , 0.125 , 4.146484375 , 7.49694749695 , 12.7448107448 , -112.454212454 , -2.86102294922 , 5.52368164062 , -0.389099121094 
2018/05/14 21:12:08.126515 , 0.1591796875 , 0.125 , 4.146484375 , 7.49694749695 , 12.7448107448 , -112.454212454 , -2.86102294922 , 5.52368164062 , -0.389099121094 
2018/05/14 21:12:08.418671 , 0.1591796875 , 0.125 , 4.146484375 , 7.49694749695 , 12.7448107448 , -112.454212454 , -3.73840332031 , 6.75201416016 , -0.587463378906 
2018/05/14 21:12:08.760339 , 0.0673828125 , 0.078125 , 4.0859375 , 8.54652014652 , 12.4449328449 , -113.353846154 , -3.73840332031 , 6.75201416016 , -0.587463378906 
2018/05/14 21:12:09.052405 , 0.0673828125 , 0.078125 , 4.0859375 , 8.54652014652 , 12.4449328449 , -113.353846154 , -3.73840332031 , 6.75201416016 , -0.587463378906 
2018/05/14 21:12:09.344916 , 0.0673828125 , 0.078125 , 4.0859375 , 8.54652014652 , 12.4449328449 , -113.353846154 , -3.73840332031 , 6.75201416016 , -0.587463378906 
2018/05/14 21:12:09.637414 , -0.1240234375 , 0.1591796875 , 4.345703125 , 5.54774114774 , 12.294993895 , -112.604151404 , -4.46319580078 , 3.98254394531 , -0.3662109375 
2018/05/14 21:12:09.929938 , -0.1240234375 , 0.1591796875 , 4.345703125 , 5.54774114774 , 12.294993895 , -112.604151404 , -4.46319580078 , 3.98254394531 , -0.3662109375 
2018/05/14 21:12:10.222420 , -0.1240234375 , 0.1591796875 , 4.345703125 , 5.54774114774 , 12.294993895 , -112.604151404 , -4.46319580078 , 3.98254394531 , -0.3662109375 
2018/05/14 21:12:10.514921 , -0.1240234375 , 0.1591796875 , 4.345703125 , 6.74725274725 , 12.1450549451 , -112.004395604 , -4.21142578125 , 4.84466552734 , -1.03759765625 
2018/05/14 21:12:10.807430 , 0.248046875 , 0.0703125 , 4.0166015625 , 6.74725274725 , 12.1450549451 , -112.004395604 , -4.21142578125 , 4.84466552734 , -1.03759765625 
2018/05/14 21:12:11.099920 , 0.248046875 , 0.0703125 , 4.0166015625 , 6.74725274725 , 12.1450549451 , -112.004395604 , -4.21142578125 , 4.84466552734 , -1.03759765625 
2018/05/14 21:12:11.392433 , 0.248046875 , 0.0703125 , 4.0166015625 , 6.74725274725 , 12.1450549451 , -112.004395604 , -4.58526611328 , 4.82940673828 , -0.907897949219 
2018/05/14 21:12:11.684904 , -0.3837890625 , 0.23828125 , 4.5341796875 , 6.74725274725 , 12.1450549451 , -112.004395604 , -4.58526611328 , 4.82940673828 , -0.907897949219 
2018/05/14 21:12:11.977434 , -0.3837890625 , 0.23828125 , 4.5341796875 , 6.74725274725 , 12.1450549451 , -112.004395604 , -4.58526611328 , 4.82940673828 , -0.907897949219 
2018/05/14 21:12:12.269973 , -0.3837890625 , 0.23828125 , 4.5341796875 , 6.74725274725 , 12.1450549451 , -112.004395604 , -4.58526611328 , 4.82940673828 , -0.907897949219 
2018/05/14 21:12:12.562434 , 0.078125 , 0.1953125 , 4.087890625 , 7.34700854701 , 11.8451770452 , -111.254700855 , -5.53894042969 , 6.01196289062 , 1.09100341797 
2018/05/14 21:12:12.854947 , 0.078125 , 0.1953125 , 4.087890625 , 7.34700854701 , 11.8451770452 , -111.254700855 , -5.53894042969 , 6.01196289062 , 1.09100341797 
2018/05/14 21:12:13.147459 , 0.078125 , 0.1953125 , 4.087890625 , 7.34700854701 , 11.8451770452 , -111.254700855 , -5.53894042969 , 6.01196289062 , 1.09100341797 
2018/05/14 21:12:13.439973 , 0.078125 , 0.1953125 , 4.087890625 , 7.34700854701 , 11.8451770452 , -111.254700855 , -3.86810302734 , 4.64630126953 , -0.762939453125 
2018/05/14 21:12:13.781519 , -0.275390625 , -0.0771484375 , 4.4384765625 , 7.34700854701 , 11.8451770452 , -111.254700855 , -3.86810302734 , 4.64630126953 , -0.762939453125 
2018/05/14 21:12:14.073740 , -0.275390625 , -0.0771484375 , 4.4384765625 , 7.34700854701 , 11.8451770452 , -111.254700855 , -3.86810302734 , 4.64630126953 , -0.762939453125 
2018/05/14 21:12:14.415333 , -0.275390625 , -0.0771484375 , 4.4384765625 , 7.34700854701 , 11.8451770452 , -111.254700855 , -4.60815429688 , 4.00543212891 , -0.434875488281 
2018/05/14 21:12:14.707463 , -0.03125 , 0.3740234375 , 4.171875 , 6.1474969475 , 12.1450549451 , -113.353846154 , -4.60815429688 , 4.00543212891 , -0.434875488281 
2018/05/14 21:12:14.999993 , -0.03125 , 0.3740234375 , 4.171875 , 6.1474969475 , 12.1450549451 , -113.353846154 , -4.60815429688 , 4.00543212891 , -0.434875488281 
2018/05/14 21:12:15.292458 , -0.03125 , 0.3740234375 , 4.171875 , 6.1474969475 , 12.1450549451 , -113.353846154 , -4.60815429688 , 4.00543212891 , -0.434875488281 
2018/05/14 21:12:15.584940 , 0.0576171875 , 0.1220703125 , 4.1533203125 , 6.1474969475 , 12.1450549451 , -113.353846154 , -4.08935546875 , 3.45611572266 , -1.87683105469 
2018/05/14 21:12:15.877448 , 0.0576171875 , 0.1220703125 , 4.1533203125 , 6.1474969475 , 12.1450549451 , -113.353846154 , -4.08935546875 , 3.45611572266 , -1.87683105469 
2018/05/14 21:12:16.169961 , 0.0576171875 , 0.1220703125 , 4.1533203125 , 6.1474969475 , 12.1450549451 , -113.353846154 , -4.08935546875 , 3.45611572266 , -1.87683105469 
2018/05/14 21:12:16.462464 , 0.0576171875 , 0.1220703125 , 4.1533203125 , 4.79804639805 , 11.8451770452 , -114.253479853 , -3.44085693359 , 3.00598144531 , 1.25885009766 
2018/05/14 21:12:16.754955 , -0.103515625 , 0.1279296875 , 4.11328125 , 4.79804639805 , 11.8451770452 , -114.253479853 , -3.44085693359 , 3.00598144531 , 1.25885009766 
2018/05/14 21:12:17.047651 , -0.103515625 , 0.1279296875 , 4.11328125 , 4.79804639805 , 11.8451770452 , -114.253479853 , -3.44085693359 , 3.00598144531 , 1.25885009766 
2018/05/14 21:12:17.339971 , -0.103515625 , 0.1279296875 , 4.11328125 , 4.79804639805 , 11.8451770452 , -114.253479853 , -3.44085693359 , 3.00598144531 , 1.25885009766 
2018/05/14 21:12:17.632460 , -0.0546875 , 0.0595703125 , 3.947265625 , 4.79804639805 , 11.8451770452 , -114.253479853 , -4.75311279297 , 3.75366210938 , -1.25885009766 
2018/05/14 21:12:17.924979 , -0.0546875 , 0.0595703125 , 3.947265625 , 4.79804639805 , 11.8451770452 , -114.253479853 , -4.75311279297 , 3.75366210938 , -1.25885009766 
2018/05/14 21:12:18.217469 , -0.0546875 , 0.0595703125 , 3.947265625 , 4.79804639805 , 11.8451770452 , -114.253479853 , -4.75311279297 , 3.75366210938 , -1.25885009766 
2018/05/14 21:12:18.509991 , -0.0546875 , 0.0595703125 , 3.947265625 , 4.79804639805 , 11.8451770452 , -114.253479853 , -4.92095947266 , 5.02777099609 , -0.503540039062 
2018/05/14 21:12:18.802471 , -0.0556640625 , 0.1640625 , 3.93359375 , 4.79804639805 , 11.8451770452 , -114.253479853 , -4.92095947266 , 5.02777099609 , -0.503540039062 
2018/05/14 21:12:19.094979 , -0.0556640625 , 0.1640625 , 3.93359375 , 4.79804639805 , 11.8451770452 , -114.253479853 , -4.92095947266 , 5.02777099609 , -0.503540039062 
2018/05/14 21:12:19.387726 , -0.0556640625 , 0.1640625 , 3.93359375 , 4.79804639805 , 11.8451770452 , -114.253479853 , -4.68444824219 , 3.86810302734 , 0.389099121094 
2018/05/14 21:12:19.680089 , -0.1689453125 , 0.2705078125 , 3.9453125 , 7.49694749695 , 12.1450549451 , -112.454212454 , -4.68444824219 , 3.86810302734 , 0.389099121094 
2018/05/14 21:12:19.972823 , -0.1689453125 , 0.2705078125 , 3.9453125 , 7.49694749695 , 12.1450549451 , -112.454212454 , -4.68444824219 , 3.86810302734 , 0.389099121094 
2018/05/14 21:12:20.264990 , -0.1689453125 , 0.2705078125 , 3.9453125 , 7.49694749695 , 12.1450549451 , -112.454212454 , -4.68444824219 , 3.86810302734 , 0.389099121094 
2018/05/14 21:12:20.557487 , -0.1533203125 , 0.2880859375 , 4.125 , 7.19706959707 , 10.3457875458 , -111.404639805 , -3.79180908203 , 4.22668457031 , -1.66320800781 
2018/05/14 21:12:20.849982 , -0.1533203125 , 0.2880859375 , 4.125 , 7.19706959707 , 10.3457875458 , -111.404639805 , -3.79180908203 , 4.22668457031 , -1.66320800781 
2018/05/14 21:12:21.142482 , -0.1533203125 , 0.2880859375 , 4.125 , 7.19706959707 , 10.3457875458 , -111.404639805 , -3.79180908203 , 4.22668457031 , -1.66320800781 
2018/05/14 21:12:21.434965 , -0.1533203125 , 0.2880859375 , 4.125 , 7.19706959707 , 10.3457875458 , -111.404639805 , -3.31115722656 , 3.44848632812 , -0.473022460938 
2018/05/14 21:12:21.727525 , -0.1259765625 , 0.0712890625 , 4.173828125 , 7.19706959707 , 10.3457875458 , -111.404639805 , -3.31115722656 , 3.44848632812 , -0.473022460938 
2018/05/14 21:12:22.020055 , -0.1259765625 , 0.0712890625 , 4.173828125 , 7.19706959707 , 10.3457875458 , -111.404639805 , -3.31115722656 , 3.44848632812 , -0.473022460938 
2018/05/14 21:12:22.312521 , -0.1259765625 , 0.0712890625 , 4.173828125 , 7.19706959707 , 10.3457875458 , -111.404639805 , -3.31115722656 , 3.44848632812 , -0.473022460938 
2018/05/14 21:12:22.605008 , 0.0009765625 , 0.001953125 , 4.234375 , 7.19706959707 , 10.3457875458 , -111.404639805 , -3.18145751953 , 3.49426269531 , 1.37329101562 
2018/05/14 21:12:22.897528 , 0.0009765625 , 0.001953125 , 4.234375 , 7.19706959707 , 10.3457875458 , -111.404639805 , -3.18145751953 , 3.49426269531 , 1.37329101562 
2018/05/14 21:12:23.190061 , 0.0009765625 , 0.001953125 , 4.234375 , 7.19706959707 , 10.3457875458 , -111.404639805 , -3.18145751953 , 3.49426269531 , 1.37329101562 
2018/05/14 21:12:23.483490 , 0.0009765625 , 0.001953125 , 4.234375 , 4.79804639805 , 10.1958485958 , -113.203907204 , -6.11114501953 , 3.51715087891 , -1.24359130859 
2018/05/14 21:12:23.823762 , 0.0478515625 , 0.25390625 , 4.1376953125 , 4.79804639805 , 10.1958485958 , -113.203907204 , -6.11114501953 , 3.51715087891 , -1.24359130859 
2018/05/14 21:12:24.116262 , 0.0478515625 , 0.25390625 , 4.1376953125 , 4.79804639805 , 10.1958485958 , -113.203907204 , -6.11114501953 , 3.51715087891 , -1.24359130859 
2018/05/14 21:12:24.408767 , 0.0478515625 , 0.25390625 , 4.1376953125 , 4.79804639805 , 10.1958485958 , -113.203907204 , -6.38580322266 , 6.21795654297 , -3.01361083984 
2018/05/14 21:12:24.701246 , -0.115234375 , -0.095703125 , 4.0517578125 , 6.59731379731 , 10.7956043956 , -112.604151404 , -6.38580322266 , 6.21795654297 , -3.01361083984 
2018/05/14 21:12:24.993977 , -0.115234375 , -0.095703125 , 4.0517578125 , 6.59731379731 , 10.7956043956 , -112.604151404 , -6.38580322266 , 6.21795654297 , -3.01361083984 
2018/05/14 21:12:25.286333 , -0.115234375 , -0.095703125 , 4.0517578125 , 6.59731379731 , 10.7956043956 , -112.604151404 , -6.38580322266 , 6.21795654297 , -3.01361083984 
2018/05/14 21:12:25.578822 , -0.0498046875 , 0.1650390625 , 4.1650390625 , 7.64688644689 , 10.7956043956 , -112.154334554 , -2.60162353516 , 2.15911865234 , -0.389099121094 
2018/05/14 21:12:25.920088 , -0.0498046875 , 0.1650390625 , 4.1650390625 , 7.64688644689 , 10.7956043956 , -112.154334554 , -2.60162353516 , 2.15911865234 , -0.389099121094 
2018/05/14 21:12:26.212528 , -0.0498046875 , 0.1650390625 , 4.1650390625 , 7.64688644689 , 10.7956043956 , -112.154334554 , -2.60162353516 , 2.15911865234 , -0.389099121094 
2018/05/14 21:12:26.505029 , -0.0498046875 , 0.1650390625 , 4.1650390625 , 7.49694749695 , 12.7448107448 , -112.754090354 , -3.06701660156 , 3.57055664062 , 0.564575195312 
2018/05/14 21:12:26.797536 , -0.01953125 , -0.0029296875 , 4.0234375 , 7.49694749695 , 12.7448107448 , -112.754090354 , -3.06701660156 , 3.57055664062 , 0.564575195312 
2018/05/14 21:12:27.090079 , -0.01953125 , -0.0029296875 , 4.0234375 , 7.49694749695 , 12.7448107448 , -112.754090354 , -3.06701660156 , 3.57055664062 , 0.564575195312 
2018/05/14 21:12:27.382550 , -0.01953125 , -0.0029296875 , 4.0234375 , 7.49694749695 , 12.7448107448 , -112.754090354 , -4.47082519531 , 5.80596923828 , 0.724792480469 
2018/05/14 21:12:27.675037 , 0.1025390625 , 0.0146484375 , 4.0693359375 , 6.59731379731 , 11.5452991453 , -112.154334554 , -4.47082519531 , 5.80596923828 , 0.724792480469 
2018/05/14 21:12:27.967529 , 0.1025390625 , 0.0146484375 , 4.0693359375 , 6.59731379731 , 11.5452991453 , -112.154334554 , -4.47082519531 , 5.80596923828 , 0.724792480469 
2018/05/14 21:12:28.260446 , 0.1025390625 , 0.0146484375 , 4.0693359375 , 6.59731379731 , 11.5452991453 , -112.154334554 , -4.47082519531 , 5.80596923828 , 0.724792480469 
2018/05/14 21:12:28.552539 , 0.1025390625 , 0.0146484375 , 4.0693359375 , 7.19706959707 , 12.1450549451 , -112.754090354 , -3.18908691406 , 5.01251220703 , -0.267028808594 
2018/05/14 21:12:28.845042 , -0.1279296875 , 0.0625 , 4.1279296875 , 7.19706959707 , 12.1450549451 , -112.754090354 , -3.18908691406 , 5.01251220703 , -0.267028808594 
2018/05/14 21:12:29.137534 , -0.1279296875 , 0.0625 , 4.1279296875 , 7.19706959707 , 12.1450549451 , -112.754090354 , -3.18908691406 , 5.01251220703 , -0.267028808594 
2018/05/14 21:12:29.430067 , -0.1279296875 , 0.0625 , 4.1279296875 , 7.19706959707 , 12.1450549451 , -112.754090354 , -7.04193115234 , 4.98199462891 , -1.44958496094 
2018/05/14 21:12:29.722704 , -0.03515625 , 0.1767578125 , 4.0185546875 , 7.79682539683 , 13.1946275946 , -112.754090354 , -7.04193115234 , 4.98199462891 , -1.44958496094 
2018/05/14 21:12:30.015073 , -0.03515625 , 0.1767578125 , 4.0185546875 , 7.79682539683 , 13.1946275946 , -112.754090354 , -7.04193115234 , 4.98199462891 , -1.44958496094 
2018/05/14 21:12:30.307552 , -0.03515625 , 0.1767578125 , 4.0185546875 , 7.79682539683 , 13.1946275946 , -112.754090354 , -7.04193115234 , 4.98199462891 , -1.44958496094 
2018/05/14 21:12:30.600085 , -0.1357421875 , 0.0263671875 , 4.0537109375 , 6.89719169719 , 11.8451770452 , -112.154334554 , -4.93621826172 , 4.56237792969 , 0.358581542969 
2018/05/14 21:12:30.941367 , -0.1357421875 , 0.0263671875 , 4.0537109375 , 6.89719169719 , 11.8451770452 , -112.154334554 , -4.93621826172 , 4.56237792969 , 0.358581542969 
2018/05/14 21:12:31.233988 , -0.1357421875 , 0.0263671875 , 4.0537109375 , 6.89719169719 , 11.8451770452 , -112.154334554 , -4.93621826172 , 4.56237792969 , 0.358581542969 
2018/05/14 21:12:31.575080 , 0.2080078125 , 0.181640625 , 4.146484375 , 7.34700854701 , 11.5452991453 , -111.254700855 , -5.42449951172 , 3.99780273438 , -0.0762939453125 
2018/05/14 21:12:31.867572 , 0.2080078125 , 0.181640625 , 4.146484375 , 7.34700854701 , 11.5452991453 , -111.254700855 , -5.42449951172 , 3.99780273438 , -0.0762939453125 
2018/05/14 21:12:32.160130 , 0.2080078125 , 0.181640625 , 4.146484375 , 7.34700854701 , 11.5452991453 , -111.254700855 , -5.42449951172 , 3.99780273438 , -0.0762939453125 
2018/05/14 21:12:32.452583 , 0.2080078125 , 0.181640625 , 4.146484375 , 7.34700854701 , 11.5452991453 , -111.254700855 , -4.01306152344 , 3.70025634766 , -0.0381469726562 
2018/05/14 21:12:32.745095 , 0.0205078125 , -0.1484375 , 4.115234375 , 6.74725274725 , 12.4449328449 , -110.055189255 , -4.01306152344 , 3.70025634766 , -0.0381469726562 
2018/05/14 21:12:33.037597 , 0.0205078125 , -0.1484375 , 4.115234375 , 6.74725274725 , 12.4449328449 , -110.055189255 , -4.01306152344 , 3.70025634766 , -0.0381469726562 
