Connecting to 24:71:89:C1:0D:07
time ,acc-x,acc-y,acc-z ,mag-x,mag-y,mag-z ,gyr-x,gyr-y,gyr-z 
2018/05/17 09:48:58.524882 , 0.0 , 0.0 , 0.0 , 0.0 , 0.0 , 0.0 , 0.0 , 0.0 , 0.0 
2018/05/17 09:48:58.784769 , 0.0 , 0.0 , 0.0 , 0.0 , 0.0 , 0.0 , 0.0 , 0.0 , 0.0 
2018/05/17 09:48:59.077229 , 0.0 , 0.0 , 0.0 , 0.0 , 0.0 , 0.0 , -5.68389892578 , 5.29479980469 , 0.564575195312 
2018/05/17 09:48:59.369953 , 0.033203125 , 0.076904296875 , 1.021484375 , 0.0 , 0.0 , 0.0 , -5.68389892578 , 5.29479980469 , 0.564575195312 
2018/05/17 09:48:59.662308 , 0.033203125 , 0.076904296875 , 1.021484375 , 0.0 , 0.0 , 0.0 , -5.68389892578 , 5.29479980469 , 0.564575195312 
2018/05/17 09:48:59.954781 , 0.033203125 , 0.076904296875 , 1.021484375 , 0.0 , 0.0 , 0.0 , -5.68389892578 , 5.29479980469 , 0.564575195312 
2018/05/17 09:49:00.344782 , 0.0361328125 , 0.009521484375 , 1.05639648438 , 0.0 , 0.0 , 0.0 , -4.26483154297 , 3.89099121094 , 0.167846679688 
2018/05/17 09:49:00.637257 , 0.0361328125 , 0.009521484375 , 1.05639648438 , 0.0 , 0.0 , 0.0 , -4.26483154297 , 3.89099121094 , 0.167846679688 
2018/05/17 09:49:00.929768 , 0.0361328125 , 0.009521484375 , 1.05639648438 , 0.0 , 0.0 , 0.0 , -4.26483154297 , 3.89099121094 , 0.167846679688 
2018/05/17 09:49:01.222242 , 0.0361328125 , 0.009521484375 , 1.05639648438 , 0.0 , 0.0 , 0.0 , -4.91333007812 , 4.12750244141 , -1.48773193359 
2018/05/17 09:49:01.514755 , 0.047607421875 , 0.0478515625 , 1.05981445312 , 0.0 , 0.0 , 0.0 , -4.91333007812 , 4.12750244141 , -1.48773193359 
2018/05/17 09:49:01.807256 , 0.047607421875 , 0.0478515625 , 1.05981445312 , 0.0 , 0.0 , 0.0 , -4.91333007812 , 4.12750244141 , -1.48773193359 
2018/05/17 09:49:02.099770 , 0.047607421875 , 0.0478515625 , 1.05981445312 , 0.0 , 0.0 , 0.0 , -4.23431396484 , 3.2958984375 , -1.13677978516 
2018/05/17 09:49:02.392295 , 0.119140625 , 0.306640625 , 4.1357421875 , 67.0227106227 , 13.6444444444 , -85.3152625153 , -4.23431396484 , 3.2958984375 , -1.13677978516 
2018/05/17 09:49:02.684751 , 0.119140625 , 0.306640625 , 4.1357421875 , 67.0227106227 , 13.6444444444 , -85.3152625153 , -4.23431396484 , 3.2958984375 , -1.13677978516 
2018/05/17 09:49:02.977275 , 0.119140625 , 0.306640625 , 4.1357421875 , 67.0227106227 , 13.6444444444 , -85.3152625153 , -4.23431396484 , 3.2958984375 , -1.13677978516 
2018/05/17 09:49:03.269758 , 0.1630859375 , 0.109375 , 4.0810546875 , 60.8752136752 , 11.6952380952 , -80.0673992674 , -5.60760498047 , 5.44738769531 , -0.274658203125 
2018/05/17 09:49:03.611011 , 0.1630859375 , 0.109375 , 4.0810546875 , 60.8752136752 , 11.6952380952 , -80.0673992674 , -5.60760498047 , 5.44738769531 , -0.274658203125 
2018/05/17 09:49:03.903503 , 0.1630859375 , 0.109375 , 4.0810546875 , 60.8752136752 , 11.6952380952 , -80.0673992674 , -5.60760498047 , 5.44738769531 , -0.274658203125 
2018/05/17 09:49:04.196025 , 0.1630859375 , 0.109375 , 4.0810546875 , 61.7748473748 , 11.2454212454 , -80.5172161172 , -5.68389892578 , 5.16510009766 , 0.297546386719 
2018/05/17 09:49:04.488526 , 0.193359375 , 0.0947265625 , 4.2578125 , 61.7748473748 , 11.2454212454 , -80.5172161172 , -5.68389892578 , 5.16510009766 , 0.297546386719 
2018/05/17 09:49:04.781009 , 0.193359375 , 0.0947265625 , 4.2578125 , 61.7748473748 , 11.2454212454 , -80.5172161172 , -5.68389892578 , 5.16510009766 , 0.297546386719 
2018/05/17 09:49:05.122434 , 0.193359375 , 0.0947265625 , 4.2578125 , 61.7748473748 , 11.2454212454 , -80.5172161172 , -4.05120849609 , 4.84466552734 , 0.999450683594 
2018/05/17 09:49:05.414814 , 0.259765625 , 0.1572265625 , 4.3203125 , 59.3758241758 , 13.0446886447 , -79.7675213675 , -4.05120849609 , 4.84466552734 , 0.999450683594 
2018/05/17 09:49:05.805504 , 0.259765625 , 0.1572265625 , 4.3203125 , 59.3758241758 , 13.0446886447 , -79.7675213675 , -4.05120849609 , 4.84466552734 , 0.999450683594 
2018/05/17 09:49:06.097364 , 0.259765625 , 0.1572265625 , 4.3203125 , 59.3758241758 , 13.0446886447 , -79.7675213675 , -3.39508056641 , 6.58416748047 , 1.59454345703 
2018/05/17 09:49:06.390072 , 0.251953125 , 0.021484375 , 4.2333984375 , 60.1255189255 , 11.6952380952 , -80.0673992674 , -3.39508056641 , 6.58416748047 , 1.59454345703 
2018/05/17 09:49:06.682380 , 0.251953125 , 0.021484375 , 4.2333984375 , 60.1255189255 , 11.6952380952 , -80.0673992674 , -3.39508056641 , 6.58416748047 , 1.59454345703 
2018/05/17 09:49:06.974809 , 0.251953125 , 0.021484375 , 4.2333984375 , 60.1255189255 , 11.6952380952 , -80.0673992674 , -3.39508056641 , 6.58416748047 , 1.59454345703 
2018/05/17 09:49:07.267289 , 0.1376953125 , 0.2158203125 , 4.2568359375 , 59.8256410256 , 11.3953601954 , -79.6175824176 , -4.81414794922 , 5.54656982422 , 0.503540039062 
2018/05/17 09:49:07.559971 , 0.1376953125 , 0.2158203125 , 4.2568359375 , 59.8256410256 , 11.3953601954 , -79.6175824176 , -4.81414794922 , 5.54656982422 , 0.503540039062 
2018/05/17 09:49:07.852427 , 0.1376953125 , 0.2158203125 , 4.2568359375 , 59.8256410256 , 11.3953601954 , -79.6175824176 , -4.81414794922 , 5.54656982422 , 0.503540039062 
2018/05/17 09:49:08.144844 , 0.1376953125 , 0.2158203125 , 4.2568359375 , 59.8256410256 , 11.3953601954 , -79.6175824176 , -4.06646728516 , 4.98199462891 , -0.114440917969 
2018/05/17 09:49:08.437317 , 0.19140625 , 0.1806640625 , 4.19921875 , 60.1255189255 , 11.6952380952 , -77.9682539683 , -4.06646728516 , 4.98199462891 , -0.114440917969 
2018/05/17 09:49:08.729797 , 0.19140625 , 0.1806640625 , 4.19921875 , 60.1255189255 , 11.6952380952 , -77.9682539683 , -4.06646728516 , 4.98199462891 , -0.114440917969 
2018/05/17 09:49:09.022296 , 0.19140625 , 0.1806640625 , 4.19921875 , 60.1255189255 , 11.6952380952 , -77.9682539683 , -4.06646728516 , 4.98199462891 , -0.114440917969 
2018/05/17 09:49:09.314937 , 0.0654296875 , 0.06640625 , 4.16015625 , 59.5257631258 , 15.2937728938 , -76.9186813187 , -3.94439697266 , 3.47900390625 , 0.091552734375 
2018/05/17 09:49:09.607312 , 0.0654296875 , 0.06640625 , 4.16015625 , 59.5257631258 , 15.2937728938 , -76.9186813187 , -3.94439697266 , 3.47900390625 , 0.091552734375 
2018/05/17 09:49:09.948859 , 0.0654296875 , 0.06640625 , 4.16015625 , 59.5257631258 , 15.2937728938 , -76.9186813187 , -3.94439697266 , 3.47900390625 , 0.091552734375 
2018/05/17 09:49:10.241056 , 0.0654296875 , 0.06640625 , 4.16015625 , 59.3758241758 , 14.0942612943 , -76.4688644689 , -5.02777099609 , 4.95147705078 , -0.686645507812 
2018/05/17 09:49:10.533915 , 0.208984375 , -0.11328125 , 4.201171875 , 59.3758241758 , 14.0942612943 , -76.4688644689 , -5.02777099609 , 4.95147705078 , -0.686645507812 
2018/05/17 09:49:10.826086 , 0.208984375 , -0.11328125 , 4.201171875 , 59.3758241758 , 14.0942612943 , -76.4688644689 , -5.02777099609 , 4.95147705078 , -0.686645507812 
2018/05/17 09:49:11.119511 , 0.208984375 , -0.11328125 , 4.201171875 , 59.3758241758 , 14.0942612943 , -76.4688644689 , -5.25665283203 , 5.28717041016 , -0.503540039062 
2018/05/17 09:49:11.411319 , 0.0146484375 , 0.1826171875 , 4.0283203125 , 59.8256410256 , 14.2442002442 , -78.2681318681 , -5.25665283203 , 5.28717041016 , -0.503540039062 
2018/05/17 09:49:11.703593 , 0.0146484375 , 0.1826171875 , 4.0283203125 , 59.8256410256 , 14.2442002442 , -78.2681318681 , -5.25665283203 , 5.28717041016 , -0.503540039062 
2018/05/17 09:49:11.996110 , 0.0146484375 , 0.1826171875 , 4.0283203125 , 59.8256410256 , 14.2442002442 , -78.2681318681 , -5.25665283203 , 5.28717041016 , -0.503540039062 
2018/05/17 09:49:12.288586 , 0.1962890625 , 0.0458984375 , 4.2646484375 , 59.5257631258 , 15.2937728938 , -76.6188034188 , -4.37164306641 , 6.05010986328 , -0.938415527344 
2018/05/17 09:49:12.581088 , 0.1962890625 , 0.0458984375 , 4.2646484375 , 59.5257631258 , 15.2937728938 , -76.6188034188 , -4.37164306641 , 6.05010986328 , -0.938415527344 
2018/05/17 09:49:12.873588 , 0.1962890625 , 0.0458984375 , 4.2646484375 , 59.5257631258 , 15.2937728938 , -76.6188034188 , -4.37164306641 , 6.05010986328 , -0.938415527344 
2018/05/17 09:49:13.166084 , 0.1962890625 , 0.0458984375 , 4.2646484375 , 60.5753357753 , 15.8935286935 , -75.8691086691 , -4.10461425781 , 5.05828857422 , 0.30517578125 
2018/05/17 09:49:13.458606 , 0.0986328125 , -0.095703125 , 4.0888671875 , 60.5753357753 , 15.8935286935 , -75.8691086691 , -4.10461425781 , 5.05828857422 , 0.30517578125 
2018/05/17 09:49:13.751095 , 0.0986328125 , -0.095703125 , 4.0888671875 , 60.5753357753 , 15.8935286935 , -75.8691086691 , -4.10461425781 , 5.05828857422 , 0.30517578125 
2018/05/17 09:49:14.043586 , 0.0986328125 , -0.095703125 , 4.0888671875 , 60.5753357753 , 15.8935286935 , -75.8691086691 , -4.10461425781 , 5.05828857422 , 0.30517578125 
2018/05/17 09:49:14.336096 , -2.3974609375 , 3.5 , 1.0634765625 , 58.7760683761 , 13.7943833944 , -76.6188034188 , 198.402404785 , 20.7214355469 , -92.7886962891 
2018/05/17 09:49:14.628928 , -2.3974609375 , 3.5 , 1.0634765625 , 58.7760683761 , 13.7943833944 , -76.6188034188 , 198.402404785 , 20.7214355469 , -92.7886962891 
2018/05/17 09:49:14.921211 , -2.3974609375 , 3.5 , 1.0634765625 , 58.7760683761 , 13.7943833944 , -76.6188034188 , 198.402404785 , 20.7214355469 , -92.7886962891 
2018/05/17 09:49:15.213696 , -2.3974609375 , 3.5 , 1.0634765625 , 7.49694749695 , 8.8463980464 , -105.856898657 , -50.6210327148 , -91.6976928711 , 58.9141845703 
2018/05/17 09:49:15.506148 , -3.0439453125 , 3.02734375 , -1.283203125 , 7.49694749695 , 8.8463980464 , -105.856898657 , -50.6210327148 , -91.6976928711 , 58.9141845703 
2018/05/17 09:49:15.798606 , -3.0439453125 , 3.02734375 , -1.283203125 , 7.49694749695 , 8.8463980464 , -105.856898657 , -50.6210327148 , -91.6976928711 , 58.9141845703 
2018/05/17 09:49:16.091208 , -3.0439453125 , 3.02734375 , -1.283203125 , 7.49694749695 , 8.8463980464 , -105.856898657 , -35.4919433594 , 248.054504395 , -59.9899291992 
2018/05/17 09:49:16.383651 , -4.9541015625 , 2.994140625 , -2.6015625 , -2.54896214896 , 8.0967032967 , -132.396092796 , -35.4919433594 , 248.054504395 , -59.9899291992 
2018/05/17 09:49:16.676365 , -4.9541015625 , 2.994140625 , -2.6015625 , -2.54896214896 , 8.0967032967 , -132.396092796 , -35.4919433594 , 248.054504395 , -59.9899291992 
2018/05/17 09:49:16.968632 , -4.9541015625 , 2.994140625 , -2.6015625 , -2.54896214896 , 8.0967032967 , -132.396092796 , -35.4919433594 , 248.054504395 , -59.9899291992 
2018/05/17 09:49:17.261116 , -2.7607421875 , 2.802734375 , -0.0927734375 , -2.39902319902 , 8.24664224664 , -134.495238095 , -11.8408203125 , 43.1976318359 , 4.69970703125 
2018/05/17 09:49:17.553613 , -2.7607421875 , 2.802734375 , -0.0927734375 , -2.39902319902 , 8.24664224664 , -134.495238095 , -11.8408203125 , 43.1976318359 , 4.69970703125 
2018/05/17 09:49:17.846122 , -2.7607421875 , 2.802734375 , -0.0927734375 , -2.39902319902 , 8.24664224664 , -134.495238095 , -11.8408203125 , 43.1976318359 , 4.69970703125 
2018/05/17 09:49:18.138619 , -2.7607421875 , 2.802734375 , -0.0927734375 , -2.39902319902 , 8.24664224664 , -134.495238095 , -127.029418945 , 164.184570312 , -0.228881835938 
2018/05/17 09:49:18.431267 , -3.103515625 , 1.3662109375 , 0.4443359375 , 0.599755799756 , 2.39902319902 , -125.798778999 , -127.029418945 , 164.184570312 , -0.228881835938 
2018/05/17 09:49:18.723657 , -3.103515625 , 1.3662109375 , 0.4443359375 , 0.599755799756 , 2.39902319902 , -125.798778999 , -127.029418945 , 164.184570312 , -0.228881835938 
2018/05/17 09:49:19.016154 , -3.103515625 , 1.3662109375 , 0.4443359375 , 0.599755799756 , 2.39902319902 , -125.798778999 , -127.029418945 , 164.184570312 , -0.228881835938 
2018/05/17 09:49:19.308649 , -3.41015625 , 1.3017578125 , 0.5849609375 , 1.34945054945 , 12.294993895 , -124.899145299 , -13.8244628906 , -38.4140014648 , -3.91387939453 
2018/05/17 09:49:19.601187 , -3.41015625 , 1.3017578125 , 0.5849609375 , 1.34945054945 , 12.294993895 , -124.899145299 , -13.8244628906 , -38.4140014648 , -3.91387939453 
2018/05/17 09:49:19.893759 , -3.41015625 , 1.3017578125 , 0.5849609375 , 1.34945054945 , 12.294993895 , -124.899145299 , -13.8244628906 , -38.4140014648 , -3.91387939453 
2018/05/17 09:49:20.186177 , -3.41015625 , 1.3017578125 , 0.5849609375 , -0.299877899878 , 11.3953601954 , -125.648840049 , -1.12152099609 , 18.2952880859 , 10.1547241211 
2018/05/17 09:49:20.478677 , -3.7099609375 , 1.1142578125 , 0.7685546875 , -0.299877899878 , 11.3953601954 , -125.648840049 , -1.12152099609 , 18.2952880859 , 10.1547241211 
2018/05/17 09:49:20.771202 , -3.7099609375 , 1.1142578125 , 0.7685546875 , -0.299877899878 , 11.3953601954 , -125.648840049 , -1.12152099609 , 18.2952880859 , 10.1547241211 
2018/05/17 09:49:21.063689 , -3.7099609375 , 1.1142578125 , 0.7685546875 , -0.299877899878 , 11.3953601954 , -125.648840049 , -16.0827636719 , -7.43865966797 , 18.8140869141 
2018/05/17 09:49:21.356211 , -3.07421875 , 0.955078125 , 2.1982421875 , 1.79926739927 , 12.1450549451 , -121.300610501 , -16.0827636719 , -7.43865966797 , 18.8140869141 
2018/05/17 09:49:21.648689 , -3.07421875 , 0.955078125 , 2.1982421875 , 1.79926739927 , 12.1450549451 , -121.300610501 , -16.0827636719 , -7.43865966797 , 18.8140869141 
2018/05/17 09:49:21.941186 , -3.07421875 , 0.955078125 , 2.1982421875 , 1.79926739927 , 12.1450549451 , -121.300610501 , -16.0827636719 , -7.43865966797 , 18.8140869141 
2018/05/17 09:49:22.233691 , -3.07421875 , 0.955078125 , 2.1982421875 , 11.5452991453 , 7.34700854701 , -100.609035409 , 41.5725708008 , -48.9349365234 , 25.0473022461 
2018/05/17 09:49:22.526199 , -4.4443359375 , 1.5185546875 , 0.7470703125 , 11.5452991453 , 7.34700854701 , -100.609035409 , 41.5725708008 , -48.9349365234 , 25.0473022461 
2018/05/17 09:49:22.818691 , -4.4443359375 , 1.5185546875 , 0.7470703125 , 11.5452991453 , 7.34700854701 , -100.609035409 , 41.5725708008 , -48.9349365234 , 25.0473022461 
2018/05/17 09:49:23.111206 , -4.4443359375 , 1.5185546875 , 0.7470703125 , 11.5452991453 , 7.34700854701 , -100.609035409 , -22.2854614258 , -63.1942749023 , 37.0559692383 
2018/05/17 09:49:23.403703 , -2.54296875 , 1.58203125 , 1.7236328125 , 10.4957264957 , 12.5948717949 , -103.307936508 , -22.2854614258 , -63.1942749023 , 37.0559692383 
2018/05/17 09:49:23.696192 , -2.54296875 , 1.58203125 , 1.7236328125 , 10.4957264957 , 12.5948717949 , -103.307936508 , -22.2854614258 , -63.1942749023 , 37.0559692383 
2018/05/17 09:49:23.988706 , -2.54296875 , 1.58203125 , 1.7236328125 , 10.4957264957 , 12.5948717949 , -103.307936508 , -22.2854614258 , -63.1942749023 , 37.0559692383 
2018/05/17 09:49:24.281207 , -4.3203125 , 0.115234375 , 0.8916015625 , 25.1897435897 , 12.5948717949 , -90.1133089133 , -65.9484863281 , 25.260925293 , 58.9447021484 
2018/05/17 09:49:24.573712 , -4.3203125 , 0.115234375 , 0.8916015625 , 25.1897435897 , 12.5948717949 , -90.1133089133 , -65.9484863281 , 25.260925293 , 58.9447021484 
2018/05/17 09:49:24.866207 , -4.3203125 , 0.115234375 , 0.8916015625 , 25.1897435897 , 12.5948717949 , -90.1133089133 , -65.9484863281 , 25.260925293 , 58.9447021484 
2018/05/17 09:49:25.158704 , -4.3203125 , 0.115234375 , 0.8916015625 , 16.0434676435 , 16.7931623932 , -97.9101343101 , 22.4838256836 , -56.3125610352 , 20.8587646484 
2018/05/17 09:49:25.548740 , -3.2236328125 , -0.455078125 , 2.33984375 , 16.0434676435 , 16.7931623932 , -97.9101343101 , 22.4838256836 , -56.3125610352 , 20.8587646484 
2018/05/17 09:49:25.841219 , -3.2236328125 , -0.455078125 , 2.33984375 , 16.0434676435 , 16.7931623932 , -97.9101343101 , 22.4838256836 , -56.3125610352 , 20.8587646484 
2018/05/17 09:49:26.133713 , -3.2236328125 , -0.455078125 , 2.33984375 , 16.0434676435 , 16.7931623932 , -97.9101343101 , -6.90460205078 , 21.4309692383 , -5.40924072266 
2018/05/17 09:49:26.426220 , -1.21484375 , -1.6787109375 , 2.9072265625 , 22.7907203907 , 11.8451770452 , -92.0625152625 , -6.90460205078 , 21.4309692383 , -5.40924072266 
2018/05/17 09:49:26.718723 , -1.21484375 , -1.6787109375 , 2.9072265625 , 22.7907203907 , 11.8451770452 , -92.0625152625 , -6.90460205078 , 21.4309692383 , -5.40924072266 
2018/05/17 09:49:27.011233 , -1.21484375 , -1.6787109375 , 2.9072265625 , 22.7907203907 , 11.8451770452 , -92.0625152625 , -6.90460205078 , 21.4309692383 , -5.40924072266 
2018/05/17 09:49:27.303722 , -1.6103515625 , -1.61328125 , 3.3876953125 , 24.2901098901 , 7.79682539683 , -90.863003663 , -22.4990844727 , -10.5667114258 , 0.144958496094 
2018/05/17 09:49:27.596254 , -1.6103515625 , -1.61328125 , 3.3876953125 , 24.2901098901 , 7.79682539683 , -90.863003663 , -22.4990844727 , -10.5667114258 , 0.144958496094 
2018/05/17 09:49:27.888743 , -1.6103515625 , -1.61328125 , 3.3876953125 , 24.2901098901 , 7.79682539683 , -90.863003663 , -22.4990844727 , -10.5667114258 , 0.144958496094 
2018/05/17 09:49:28.181240 , -1.6103515625 , -1.61328125 , 3.3876953125 , 23.8402930403 , 4.49816849817 , -88.314041514 , -1.71661376953 , 1.53350830078 , 0.755310058594 
2018/05/17 09:49:28.473732 , -1.390625 , -1.935546875 , 3.103515625 , 23.8402930403 , 4.49816849817 , -88.314041514 , -1.71661376953 , 1.53350830078 , 0.755310058594 
2018/05/17 09:49:28.766232 , -1.390625 , -1.935546875 , 3.103515625 , 23.8402930403 , 4.49816849817 , -88.314041514 , -1.71661376953 , 1.53350830078 , 0.755310058594 
2018/05/17 09:49:29.058737 , -1.390625 , -1.935546875 , 3.103515625 , 23.8402930403 , 4.49816849817 , -88.314041514 , -22.7966308594 , 19.5159912109 , 2.41851806641 
2018/05/17 09:49:29.351247 , -1.4375 , -1.49609375 , 3.50390625 , 29.2380952381 , 2.84884004884 , -85.4652014652 , -22.7966308594 , 19.5159912109 , 2.41851806641 
2018/05/17 09:49:29.643742 , -1.4375 , -1.49609375 , 3.50390625 , 29.2380952381 , 2.84884004884 , -85.4652014652 , -22.7966308594 , 19.5159912109 , 2.41851806641 
2018/05/17 09:49:29.936266 , -1.4375 , -1.49609375 , 3.50390625 , 29.2380952381 , 2.84884004884 , -85.4652014652 , -22.7966308594 , 19.5159912109 , 2.41851806641 
2018/05/17 09:49:30.228749 , -1.4375 , -1.49609375 , 3.50390625 , 29.2380952381 , 2.84884004884 , -85.4652014652 , 2.73132324219 , 9.12475585938 , -2.78472900391 
2018/05/17 09:49:30.521278 , -1.49609375 , -1.259765625 , 3.416015625 , 29.2380952381 , 2.84884004884 , -85.4652014652 , 2.73132324219 , 9.12475585938 , -2.78472900391 
2018/05/17 09:49:30.813757 , -1.49609375 , -1.259765625 , 3.416015625 , 29.2380952381 , 2.84884004884 , -85.4652014652 , 2.73132324219 , 9.12475585938 , -2.78472900391 
2018/05/17 09:49:31.106260 , -1.49609375 , -1.259765625 , 3.416015625 , 29.2380952381 , 2.84884004884 , -85.4652014652 , 7.41577148438 , -2.09045410156 , 3.81469726562 
2018/05/17 09:49:31.398761 , -0.0390625 , -0.9140625 , 3.7734375 , 29.2380952381 , 2.84884004884 , -85.4652014652 , 7.41577148438 , -2.09045410156 , 3.81469726562 
2018/05/17 09:49:31.691276 , -0.0390625 , -0.9140625 , 3.7734375 , 29.2380952381 , 2.84884004884 , -85.4652014652 , 7.41577148438 , -2.09045410156 , 3.81469726562 
2018/05/17 09:49:31.983775 , -0.0390625 , -0.9140625 , 3.7734375 , 29.2380952381 , 2.84884004884 , -85.4652014652 , 7.41577148438 , -2.09045410156 , 3.81469726562 
2018/05/17 09:49:32.276301 , -1.3603515625 , -1.328125 , 5.1015625 , 29.2380952381 , 2.84884004884 , -85.4652014652 , -50.8041381836 , -43.1747436523 , 106.109619141 
2018/05/17 09:49:32.568780 , -1.3603515625 , -1.328125 , 5.1015625 , 29.2380952381 , 2.84884004884 , -85.4652014652 , -50.8041381836 , -43.1747436523 , 106.109619141 
2018/05/17 09:49:32.861269 , -1.3603515625 , -1.328125 , 5.1015625 , 29.2380952381 , 2.84884004884 , -85.4652014652 , -50.8041381836 , -43.1747436523 , 106.109619141 
2018/05/17 09:49:33.153903 , -1.3603515625 , -1.328125 , 5.1015625 , 29.2380952381 , 2.84884004884 , -85.4652014652 , -57.1670532227 , 24.7497558594 , 73.1811523438 
2018/05/17 09:49:33.446290 , -0.2724609375 , 0.525390625 , 4.6552734375 , 29.2380952381 , 2.84884004884 , -85.4652014652 , -57.1670532227 , 24.7497558594 , 73.1811523438 
2018/05/17 09:49:33.738783 , -0.2724609375 , 0.525390625 , 4.6552734375 , 29.2380952381 , 2.84884004884 , -85.4652014652 , -57.1670532227 , 24.7497558594 , 73.1811523438 
2018/05/17 09:49:34.031279 , -0.2724609375 , 0.525390625 , 4.6552734375 , 29.2380952381 , 2.84884004884 , -85.4652014652 , -57.1670532227 , 24.7497558594 , 73.1811523438 
2018/05/17 09:49:34.323793 , -0.76171875 , 0.009765625 , 3.9501953125 , 29.2380952381 , 2.84884004884 , -85.4652014652 , -6.82067871094 , 4.53186035156 , 9.84191894531 
2018/05/17 09:49:34.616284 , -0.76171875 , 0.009765625 , 3.9501953125 , 29.2380952381 , 2.84884004884 , -85.4652014652 , -6.82067871094 , 4.53186035156 , 9.84191894531 
2018/05/17 09:49:34.908789 , -0.76171875 , 0.009765625 , 3.9501953125 , 29.2380952381 , 2.84884004884 , -85.4652014652 , -6.82067871094 , 4.53186035156 , 9.84191894531 
2018/05/17 09:49:35.201282 , -0.76171875 , 0.009765625 , 3.9501953125 , 29.2380952381 , 2.84884004884 , -85.4652014652 , -3.90625 , 3.98254394531 , -0.648498535156 
2018/05/17 09:49:35.493786 , -0.998046875 , -0.013671875 , 3.8447265625 , 29.2380952381 , 2.84884004884 , -85.4652014652 , -3.90625 , 3.98254394531 , -0.648498535156 
2018/05/17 09:49:35.786281 , -0.998046875 , -0.013671875 , 3.8447265625 , 29.2380952381 , 2.84884004884 , -85.4652014652 , -3.90625 , 3.98254394531 , -0.648498535156 
2018/05/17 09:49:36.078792 , -0.998046875 , -0.013671875 , 3.8447265625 , 29.2380952381 , 2.84884004884 , -85.4652014652 , -16.7083740234 , -14.9688720703 , 0.846862792969 
2018/05/17 09:49:36.371316 , -1.1787109375 , 0.0751953125 , 4.169921875 , 29.2380952381 , 2.84884004884 , -85.4652014652 , -16.7083740234 , -14.9688720703 , 0.846862792969 
2018/05/17 09:49:36.712558 , -1.1787109375 , 0.0751953125 , 4.169921875 , 29.2380952381 , 2.84884004884 , -85.4652014652 , -16.7083740234 , -14.9688720703 , 0.846862792969 
2018/05/17 09:49:37.005043 , -1.1787109375 , 0.0751953125 , 4.169921875 , 29.2380952381 , 2.84884004884 , -85.4652014652 , -16.7083740234 , -14.9688720703 , 0.846862792969 
2018/05/17 09:49:37.297538 , -0.052734375 , -1.0068359375 , 4.0 , 29.2380952381 , 2.84884004884 , -85.4652014652 , -4.99725341797 , -0.442504882812 , -1.32751464844 
2018/05/17 09:49:37.590071 , -0.052734375 , -1.0068359375 , 4.0 , 29.2380952381 , 2.84884004884 , -85.4652014652 , -4.99725341797 , -0.442504882812 , -1.32751464844 
2018/05/17 09:49:37.882564 , -0.052734375 , -1.0068359375 , 4.0 , 29.2380952381 , 2.84884004884 , -85.4652014652 , -4.99725341797 , -0.442504882812 , -1.32751464844 
2018/05/17 09:49:38.175056 , -0.052734375 , -1.0068359375 , 4.0 , 29.2380952381 , 2.84884004884 , -85.4652014652 , 33.3938598633 , 66.1010742188 , 13.2598876953 
2018/05/17 09:49:38.467568 , -1.8291015625 , 1.1181640625 , 4.142578125 , 29.2380952381 , 2.84884004884 , -85.4652014652 , 33.3938598633 , 66.1010742188 , 13.2598876953 
2018/05/17 09:49:38.760060 , -1.8291015625 , 1.1181640625 , 4.142578125 , 29.2380952381 , 2.84884004884 , -85.4652014652 , 33.3938598633 , 66.1010742188 , 13.2598876953 
2018/05/17 09:49:39.052582 , -1.8291015625 , 1.1181640625 , 4.142578125 , 29.2380952381 , 2.84884004884 , -85.4652014652 , 33.3938598633 , 66.1010742188 , 13.2598876953 
2018/05/17 09:49:39.345070 , -1.9892578125 , 0.0654296875 , 3.3193359375 , 29.2380952381 , 2.84884004884 , -85.4652014652 , -24.1928100586 , -5.14221191406 , 5.76782226562 
2018/05/17 09:49:39.637573 , -1.9892578125 , 0.0654296875 , 3.3193359375 , 29.2380952381 , 2.84884004884 , -85.4652014652 , -24.1928100586 , -5.14221191406 , 5.76782226562 
2018/05/17 09:49:39.930184 , -1.9892578125 , 0.0654296875 , 3.3193359375 , 29.2380952381 , 2.84884004884 , -85.4652014652 , -24.1928100586 , -5.14221191406 , 5.76782226562 
2018/05/17 09:49:40.222684 , -1.94921875 , 2.01953125 , 3.515625 , 29.2380952381 , 2.84884004884 , -85.4652014652 , 25.2380371094 , 27.8549194336 , -29.8767089844 
2018/05/17 09:49:40.563825 , -1.94921875 , 2.01953125 , 3.515625 , 29.2380952381 , 2.84884004884 , -85.4652014652 , 25.2380371094 , 27.8549194336 , -29.8767089844 
2018/05/17 09:49:40.856331 , -1.94921875 , 2.01953125 , 3.515625 , 29.2380952381 , 2.84884004884 , -85.4652014652 , 25.2380371094 , 27.8549194336 , -29.8767089844 
2018/05/17 09:49:41.148824 , -1.94921875 , 2.01953125 , 3.515625 , 29.2380952381 , 2.84884004884 , -85.4652014652 , 6.80541992188 , 79.3838500977 , -22.0413208008 
2018/05/17 09:49:41.441643 , -1.166015625 , 2.087890625 , 2.2509765625 , 29.2380952381 , 2.84884004884 , -85.4652014652 , 6.80541992188 , 79.3838500977 , -22.0413208008 
2018/05/17 17:44:40.751790 , -1.166015625 , 2.087890625 , 2.2509765625 , 29.2380952381 , 2.84884004884 , -85.4652014652 , 6.80541992188 , 79.3838500977 , -22.0413208008 
2018/05/17 17:44:41.043756 , -1.166015625 , 2.087890625 , 2.2509765625 , 29.2380952381 , 2.84884004884 , -85.4652014652 , 6.80541992188 , 79.3838500977 , -22.0413208008 
2018/05/17 17:44:41.336260 , -1.892578125 , 2.2548828125 , 2.966796875 , 29.2380952381 , 2.84884004884 , -85.4652014652 , -6.25610351562 , 6.57653808594 , 6.58416748047 
2018/05/17 17:44:41.628778 , -1.892578125 , 2.2548828125 , 2.966796875 , 29.2380952381 , 2.84884004884 , -85.4652014652 , -6.25610351562 , 6.57653808594 , 6.58416748047 
2018/05/17 17:44:41.921244 , -1.892578125 , 2.2548828125 , 2.966796875 , 29.2380952381 , 2.84884004884 , -85.4652014652 , -6.25610351562 , 6.57653808594 , 6.58416748047 
2018/05/17 17:44:42.213922 , -1.892578125 , 2.2548828125 , 2.966796875 , 29.2380952381 , 2.84884004884 , -85.4652014652 , -5.19561767578 , 32.112121582 , -13.5040283203 
2018/05/17 17:44:42.506243 , -1.50390625 , 1.71875 , 3.56640625 , 29.2380952381 , 2.84884004884 , -85.4652014652 , -5.19561767578 , 32.112121582 , -13.5040283203 
2018/05/17 17:44:42.798736 , -1.50390625 , 1.71875 , 3.56640625 , 29.2380952381 , 2.84884004884 , -85.4652014652 , -5.19561767578 , 32.112121582 , -13.5040283203 
2018/05/17 17:44:43.091241 , -1.50390625 , 1.71875 , 3.56640625 , 29.2380952381 , 2.84884004884 , -85.4652014652 , -5.19561767578 , 32.112121582 , -13.5040283203 
2018/05/17 17:44:43.383741 , -0.921875 , 1.087890625 , 2.08984375 , 29.2380952381 , 2.84884004884 , -85.4652014652 , 23.0941772461 , 29.4189453125 , 5.0048828125 
2018/05/17 17:44:43.676257 , -0.921875 , 1.087890625 , 2.08984375 , 29.2380952381 , 2.84884004884 , -85.4652014652 , 23.0941772461 , 29.4189453125 , 5.0048828125 
2018/05/17 17:44:43.968754 , -0.921875 , 1.087890625 , 2.08984375 , 29.2380952381 , 2.84884004884 , -85.4652014652 , 23.0941772461 , 29.4189453125 , 5.0048828125 
2018/05/17 17:44:44.261243 , -0.921875 , 1.087890625 , 2.08984375 , 31.7870573871 , 6.74725274725 , -90.863003663 , -55.3741455078 , 40.4968261719 , -5.27191162109 
2018/05/17 17:44:44.553742 , -3.5703125 , 2.87890625 , 4.2568359375 , 31.7870573871 , 6.74725274725 , -90.863003663 , -55.3741455078 , 40.4968261719 , -5.27191162109 
2018/05/17 17:44:44.846253 , -3.5703125 , 2.87890625 , 4.2568359375 , 31.7870573871 , 6.74725274725 , -90.863003663 , -55.3741455078 , 40.4968261719 , -5.27191162109 
2018/05/17 17:44:45.138763 , -3.5703125 , 2.87890625 , 4.2568359375 , 31.7870573871 , 6.74725274725 , -90.863003663 , 10.5133056641 , 4.60052490234 , -25.0778198242 
2018/05/17 17:44:45.431252 , -3.177734375 , 1.8935546875 , 4.517578125 , 37.1848595849 , 9.44615384615 , -92.0625152625 , 10.5133056641 , 4.60052490234 , -25.0778198242 
2018/05/17 17:44:45.723777 , -3.177734375 , 1.8935546875 , 4.517578125 , 37.1848595849 , 9.44615384615 , -92.0625152625 , 10.5133056641 , 4.60052490234 , -25.0778198242 
2018/05/17 17:44:46.016256 , -3.177734375 , 1.8935546875 , 4.517578125 , 37.1848595849 , 9.44615384615 , -92.0625152625 , 10.5133056641 , 4.60052490234 , -25.0778198242 
2018/05/17 17:44:46.308799 , -2.5166015625 , 2.7109375 , 3.8408203125 , 28.7882783883 , 12.294993895 , -96.5606837607 , 6.05010986328 , 45.1889038086 , 56.884765625 
2018/05/17 17:44:46.601263 , -2.5166015625 , 2.7109375 , 3.8408203125 , 28.7882783883 , 12.294993895 , -96.5606837607 , 6.05010986328 , 45.1889038086 , 56.884765625 
2018/05/17 17:44:46.893778 , -2.5166015625 , 2.7109375 , 3.8408203125 , 28.7882783883 , 12.294993895 , -96.5606837607 , 6.05010986328 , 45.1889038086 , 56.884765625 
2018/05/17 17:44:47.186280 , -2.5166015625 , 2.7109375 , 3.8408203125 , 26.989010989 , 20.6915750916 , -100.009279609 , -45.6771850586 , 42.8848266602 , 70.8923339844 
2018/05/17 17:44:47.478766 , -2.4375 , 0.494140625 , 3.44140625 , 26.989010989 , 20.6915750916 , -100.009279609 , -45.6771850586 , 42.8848266602 , 70.8923339844 
2018/05/17 17:44:47.771270 , -2.4375 , 0.494140625 , 3.44140625 , 26.989010989 , 20.6915750916 , -100.009279609 , -45.6771850586 , 42.8848266602 , 70.8923339844 
2018/05/17 17:44:48.063761 , -2.4375 , 0.494140625 , 3.44140625 , 26.989010989 , 20.6915750916 , -100.009279609 , -45.6771850586 , 42.8848266602 , 70.8923339844 
2018/05/17 17:44:48.356277 , -2.7490234375 , 1.5859375 , 2.6318359375 , 26.989010989 , 23.2405372405 , -96.8605616606 , 12.1383666992 , -3.97491455078 , -7.74383544922 
2018/05/17 17:44:48.648781 , -2.7490234375 , 1.5859375 , 2.6318359375 , 26.989010989 , 23.2405372405 , -96.8605616606 , 12.1383666992 , -3.97491455078 , -7.74383544922 
2018/05/17 17:44:48.941288 , -2.7490234375 , 1.5859375 , 2.6318359375 , 26.989010989 , 23.2405372405 , -96.8605616606 , 12.1383666992 , -3.97491455078 , -7.74383544922 
2018/05/17 17:44:49.233791 , -2.7490234375 , 1.5859375 , 2.6318359375 , 27.7387057387 , 23.5404151404 , -89.6634920635 , -25.9552001953 , 0.289916992188 , 32.3791503906 
2018/05/17 17:44:49.526293 , -3.0244140625 , 1.580078125 , 1.857421875 , 27.7387057387 , 23.5404151404 , -89.6634920635 , -25.9552001953 , 0.289916992188 , 32.3791503906 
2018/05/17 17:44:49.818773 , -3.0244140625 , 1.580078125 , 1.857421875 , 27.7387057387 , 23.5404151404 , -89.6634920635 , -25.9552001953 , 0.289916992188 , 32.3791503906 
2018/05/17 17:44:50.111308 , -3.0244140625 , 1.580078125 , 1.857421875 , 27.7387057387 , 23.5404151404 , -89.6634920635 , 16.5023803711 , 10.5895996094 , -15.739440918 
2018/05/17 17:44:50.403791 , -2.4912109375 , 1.384765625 , 2.5595703125 , 25.9394383394 , 21.7411477411 , -91.7626373626 , 16.5023803711 , 10.5895996094 , -15.739440918 
2018/05/17 17:44:50.696296 , -2.4912109375 , 1.384765625 , 2.5595703125 , 25.9394383394 , 21.7411477411 , -91.7626373626 , 16.5023803711 , 10.5895996094 , -15.739440918 
2018/05/17 17:44:50.988796 , -2.4912109375 , 1.384765625 , 2.5595703125 , 25.9394383394 , 21.7411477411 , -91.7626373626 , 16.5023803711 , 10.5895996094 , -15.739440918 
2018/05/17 17:44:51.281292 , -2.345703125 , 3.337890625 , 3.4384765625 , 25.3396825397 , 19.4920634921 , -92.2124542125 , 23.0026245117 , 50.3387451172 , -41.4505004883 
2018/05/17 17:44:51.573808 , -2.345703125 , 3.337890625 , 3.4384765625 , 25.3396825397 , 19.4920634921 , -92.2124542125 , 23.0026245117 , 50.3387451172 , -41.4505004883 
2018/05/17 17:44:51.866298 , -2.345703125 , 3.337890625 , 3.4384765625 , 25.3396825397 , 19.4920634921 , -92.2124542125 , 23.0026245117 , 50.3387451172 , -41.4505004883 
2018/05/17 17:44:52.158807 , -2.345703125 , 3.337890625 , 3.4384765625 , 25.3396825397 , 19.4920634921 , -92.2124542125 , 29.5257568359 , 14.0075683594 , 25.5966186523 
2018/05/17 17:44:52.451301 , -1.1689453125 , 1.255859375 , 2.1748046875 , 23.2405372405 , 24.7399267399 , -98.0600732601 , 29.5257568359 , 14.0075683594 , 25.5966186523 
2018/05/17 17:44:52.743803 , -1.1689453125 , 1.255859375 , 2.1748046875 , 23.2405372405 , 24.7399267399 , -98.0600732601 , 29.5257568359 , 14.0075683594 , 25.5966186523 
2018/05/17 17:44:53.085070 , -1.1689453125 , 1.255859375 , 2.1748046875 , 23.2405372405 , 24.7399267399 , -98.0600732601 , -42.0761108398 , -11.2457275391 , 42.6635742188 
2018/05/17 17:44:53.377574 , -3.9375 , 0.083984375 , 4.056640625 , 29.8378510379 , 29.537973138 , -96.2608058608 , -42.0761108398 , -11.2457275391 , 42.6635742188 
2018/05/17 17:44:53.670080 , -3.9375 , 0.083984375 , 4.056640625 , 29.8378510379 , 29.537973138 , -96.2608058608 , -42.0761108398 , -11.2457275391 , 42.6635742188 
2018/05/17 17:44:53.962571 , -3.9375 , 0.083984375 , 4.056640625 , 29.8378510379 , 29.537973138 , -96.2608058608 , -42.0761108398 , -11.2457275391 , 42.6635742188 
2018/05/17 17:44:54.255082 , -3.9375 , 0.083984375 , 4.056640625 , 20.5416361416 , 28.3384615385 , -116.802442002 , -25.9857177734 , 37.7731323242 , -67.6193237305 
2018/05/17 17:44:54.547666 , -3.46875 , 2.0517578125 , 2.171875 , 20.5416361416 , 28.3384615385 , -116.802442002 , -25.9857177734 , 37.7731323242 , -67.6193237305 
2018/05/17 17:44:54.840075 , -3.46875 , 2.0517578125 , 2.171875 , 20.5416361416 , 28.3384615385 , -116.802442002 , -25.9857177734 , 37.7731323242 , -67.6193237305 
2018/05/17 17:44:55.132572 , -3.46875 , 2.0517578125 , 2.171875 , 20.5416361416 , 28.3384615385 , -116.802442002 , -33.7448120117 , 25.0854492188 , 38.6123657227 
2018/05/17 17:44:55.425088 , -3.1220703125 , -0.3916015625 , 3.02734375 , 14.843956044 , 19.7919413919 , -105.856898657 , -33.7448120117 , 25.0854492188 , 38.6123657227 
2018/05/17 17:44:55.717616 , -3.1220703125 , -0.3916015625 , 3.02734375 , 14.843956044 , 19.7919413919 , -105.856898657 , -33.7448120117 , 25.0854492188 , 38.6123657227 
2018/05/17 17:44:56.010096 , -3.1220703125 , -0.3916015625 , 3.02734375 , 14.843956044 , 19.7919413919 , -105.856898657 , -33.7448120117 , 25.0854492188 , 38.6123657227 
2018/05/17 17:44:56.302590 , -1.8857421875 , 1.396484375 , 2.291015625 , 15.8935286935 , 25.4896214896 , -102.858119658 , 8.33892822266 , 0.0839233398438 , 21.1334228516 
2018/05/17 17:44:56.595113 , -1.8857421875 , 1.396484375 , 2.291015625 , 15.8935286935 , 25.4896214896 , -102.858119658 , 8.33892822266 , 0.0839233398438 , 21.1334228516 
2018/05/17 17:44:56.887597 , -1.8857421875 , 1.396484375 , 2.291015625 , 15.8935286935 , 25.4896214896 , -102.858119658 , 8.33892822266 , 0.0839233398438 , 21.1334228516 
2018/05/17 17:44:57.180103 , -1.8857421875 , 1.396484375 , 2.291015625 , 35.9853479853 , 34.336019536 , -75.5692307692 , -9.01794433594 , 28.2669067383 , 38.7802124023 
2018/05/17 17:44:57.472588 , -2.6259765625 , -0.341796875 , 3.169921875 , 35.9853479853 , 34.336019536 , -75.5692307692 , -9.01794433594 , 28.2669067383 , 38.7802124023 
2018/05/17 17:44:57.765092 , -2.6259765625 , -0.341796875 , 3.169921875 , 35.9853479853 , 34.336019536 , -75.5692307692 , -9.01794433594 , 28.2669067383 , 38.7802124023 
2018/05/17 17:44:58.057594 , -2.6259765625 , -0.341796875 , 3.169921875 , 35.9853479853 , 34.336019536 , -75.5692307692 , -9.01794433594 , 28.2669067383 , 38.7802124023 
2018/05/17 17:44:58.350104 , -2.240234375 , 1.365234375 , 1.90625 , 56.377045177 , 27.5887667888 , -90.2632478632 , -66.7953491211 , 84.4650268555 , 56.0684204102 
2018/05/17 17:44:58.642605 , -2.240234375 , 1.365234375 , 1.90625 , 56.377045177 , 27.5887667888 , -90.2632478632 , -66.7953491211 , 84.4650268555 , 56.0684204102 
2018/05/17 17:44:58.935099 , -2.240234375 , 1.365234375 , 1.90625 , 56.377045177 , 27.5887667888 , -90.2632478632 , -66.7953491211 , 84.4650268555 , 56.0684204102 
2018/05/17 17:44:59.227632 , -2.240234375 , 1.365234375 , 1.90625 , 19.9418803419 , 15.7435897436 , -129.997069597 , -56.4651489258 , 24.9404907227 , 53.2608032227 
2018/05/17 17:44:59.520115 , -2.4189453125 , 2.314453125 , 2.33203125 , 19.9418803419 , 15.7435897436 , -129.997069597 , -56.4651489258 , 24.9404907227 , 53.2608032227 
2018/05/17 17:44:59.812603 , -2.4189453125 , 2.314453125 , 2.33203125 , 19.9418803419 , 15.7435897436 , -129.997069597 , -56.4651489258 , 24.9404907227 , 53.2608032227 
2018/05/17 17:45:00.105101 , -2.4189453125 , 2.314453125 , 2.33203125 , 19.9418803419 , 15.7435897436 , -129.997069597 , -6.63757324219 , -189.094543457 , -7.69805908203 
2018/05/17 17:45:00.446360 , -6.1181640625 , 1.46875 , 6.822265625 , 23.6903540904 , 27.8886446886 , -128.797557998 , -6.63757324219 , -189.094543457 , -7.69805908203 
2018/05/17 17:45:00.738880 , -6.1181640625 , 1.46875 , 6.822265625 , 23.6903540904 , 27.8886446886 , -128.797557998 , -6.63757324219 , -189.094543457 , -7.69805908203 
2018/05/17 17:45:01.031362 , -6.1181640625 , 1.46875 , 6.822265625 , 23.6903540904 , 27.8886446886 , -128.797557998 , -6.63757324219 , -189.094543457 , -7.69805908203 
2018/05/17 17:45:01.323865 , -3.107421875 , 1.3232421875 , 3.580078125 , 34.7858363858 , 22.7907203907 , -106.456654457 , 35.6216430664 , -61.2030029297 , -31.1813354492 
2018/05/17 17:45:01.616484 , -3.107421875 , 1.3232421875 , 3.580078125 , 34.7858363858 , 22.7907203907 , -106.456654457 , 35.6216430664 , -61.2030029297 , -31.1813354492 
2018/05/17 17:45:01.908871 , -3.107421875 , 1.3232421875 , 3.580078125 , 34.7858363858 , 22.7907203907 , -106.456654457 , 35.6216430664 , -61.2030029297 , -31.1813354492 
2018/05/17 17:45:02.201365 , -3.107421875 , 1.3232421875 , 3.580078125 , 12.4449328449 , 18.7423687424 , -121.9003663 , 53.6270141602 , 15.266418457 , -39.924621582 
2018/05/17 17:45:02.493886 , -1.6279296875 , 0.8583984375 , 2.3935546875 , 12.4449328449 , 18.7423687424 , -121.9003663 , 53.6270141602 , 15.266418457 , -39.924621582 
2018/05/17 17:45:02.786521 , -1.6279296875 , 0.8583984375 , 2.3935546875 , 12.4449328449 , 18.7423687424 , -121.9003663 , 53.6270141602 , 15.266418457 , -39.924621582 
2018/05/17 17:45:03.078882 , -1.6279296875 , 0.8583984375 , 2.3935546875 , 12.4449328449 , 18.7423687424 , -121.9003663 , 46.0205078125 , -36.0107421875 , -2.50244140625 
2018/05/17 17:45:03.371375 , -0.59765625 , 0.9931640625 , 0.8740234375 , -35.6854700855 , 11.0954822955 , -141.392429792 , 46.0205078125 , -36.0107421875 , -2.50244140625 
2018/05/17 17:45:03.663879 , -0.59765625 , 0.9931640625 , 0.8740234375 , -35.6854700855 , 11.0954822955 , -141.392429792 , 46.0205078125 , -36.0107421875 , -2.50244140625 
2018/05/17 17:45:03.956388 , -0.59765625 , 0.9931640625 , 0.8740234375 , -35.6854700855 , 11.0954822955 , -141.392429792 , 46.0205078125 , -36.0107421875 , -2.50244140625 
2018/05/17 17:45:04.248881 , -0.59765625 , 0.9931640625 , 0.8740234375 , -5.3978021978 , 14.0942612943 , -102.708180708 , -10.627746582 , -71.9680786133 , -41.0919189453 
2018/05/17 17:45:04.541392 , -3.1044921875 , 0.4873046875 , 2.8544921875 , -5.3978021978 , 14.0942612943 , -102.708180708 , -10.627746582 , -71.9680786133 , -41.0919189453 
2018/05/17 17:45:04.833898 , -3.1044921875 , 0.4873046875 , 2.8544921875 , -5.3978021978 , 14.0942612943 , -102.708180708 , -10.627746582 , -71.9680786133 , -41.0919189453 
2018/05/17 17:45:05.126394 , -3.1044921875 , 0.4873046875 , 2.8544921875 , -5.3978021978 , 14.0942612943 , -102.708180708 , 8.34655761719 , 27.9922485352 , 20.8053588867 
2018/05/17 17:45:05.418897 , -4.00390625 , -0.0166015625 , 2.689453125 , 22.190964591 , 21.8910866911 , -98.0600732601 , 8.34655761719 , 27.9922485352 , 20.8053588867 
2018/05/17 17:45:05.711393 , -4.00390625 , -0.0166015625 , 2.689453125 , 22.190964591 , 21.8910866911 , -98.0600732601 , 8.34655761719 , 27.9922485352 , 20.8053588867 
2018/05/17 17:45:06.003900 , -4.00390625 , -0.0166015625 , 2.689453125 , 22.190964591 , 21.8910866911 , -98.0600732601 , 8.34655761719 , 27.9922485352 , 20.8053588867 
2018/05/17 17:45:06.296397 , -3.50390625 , 1.1201171875 , 2.64453125 , 38.0844932845 , 22.3409035409 , -95.9609279609 , 18.8980102539 , -2.67791748047 , -8.6669921875 
2018/05/17 17:45:06.588916 , -3.50390625 , 1.1201171875 , 2.64453125 , 38.0844932845 , 22.3409035409 , -95.9609279609 , 18.8980102539 , -2.67791748047 , -8.6669921875 
2018/05/17 17:45:06.881400 , -3.50390625 , 1.1201171875 , 2.64453125 , 38.0844932845 , 22.3409035409 , -95.9609279609 , 18.8980102539 , -2.67791748047 , -8.6669921875 
2018/05/17 17:45:07.173903 , -3.50390625 , 1.1201171875 , 2.64453125 , 38.0844932845 , 20.8415140415 , -101.208791209 , 59.7229003906 , -0.907897949219 , -61.4166259766 
2018/05/17 17:45:07.466410 , -2.8388671875 , 0.9833984375 , 1.89453125 , 38.0844932845 , 20.8415140415 , -101.208791209 , 59.7229003906 , -0.907897949219 , -61.4166259766 
2018/05/17 17:45:07.758913 , -2.8388671875 , 0.9833984375 , 1.89453125 , 38.0844932845 , 20.8415140415 , -101.208791209 , 59.7229003906 , -0.907897949219 , -61.4166259766 
2018/05/17 17:45:08.051411 , -2.8388671875 , 0.9833984375 , 1.89453125 , 38.0844932845 , 20.8415140415 , -101.208791209 , 59.7229003906 , -0.907897949219 , -61.4166259766 
2018/05/17 17:45:08.343921 , -2.07421875 , 2.2587890625 , 2.5439453125 , 19.4920634921 , 15.2937728938 , -117.852014652 , -11.5966796875 , 10.7574462891 , -1.83868408203 
2018/05/17 17:45:08.636547 , -2.07421875 , 2.2587890625 , 2.5439453125 , 19.4920634921 , 15.2937728938 , -117.852014652 , -11.5966796875 , 10.7574462891 , -1.83868408203 
2018/05/17 17:45:08.928919 , -2.07421875 , 2.2587890625 , 2.5439453125 , 19.4920634921 , 15.2937728938 , -117.852014652 , -11.5966796875 , 10.7574462891 , -1.83868408203 
2018/05/17 17:45:09.221425 , -2.07421875 , 2.2587890625 , 2.5439453125 , 18.5924297924 , 12.294993895 , -104.357509158 , -37.9333496094 , 29.5333862305 , 35.7360839844 
2018/05/17 17:45:09.513929 , -2.060546875 , 1.9443359375 , 2.640625 , 18.5924297924 , 12.294993895 , -104.357509158 , -37.9333496094 , 29.5333862305 , 35.7360839844 
2018/05/17 17:45:09.806568 , -2.060546875 , 1.9443359375 , 2.640625 , 18.5924297924 , 12.294993895 , -104.357509158 , -37.9333496094 , 29.5333862305 , 35.7360839844 
2018/05/17 17:45:10.098942 , -2.060546875 , 1.9443359375 , 2.640625 , 18.5924297924 , 12.294993895 , -104.357509158 , -12.9318237305 , 8.47625732422 , 7.40814208984 
2018/05/17 17:45:10.391428 , -2.662109375 , 1.828125 , 2.4345703125 , 18.5924297924 , 12.294993895 , -104.357509158 , -12.9318237305 , 8.47625732422 , 7.40814208984 
2018/05/17 17:45:10.683960 , -2.662109375 , 1.828125 , 2.4345703125 , 18.5924297924 , 12.294993895 , -104.357509158 , -12.9318237305 , 8.47625732422 , 7.40814208984 
2018/05/17 17:45:10.976430 , -2.662109375 , 1.828125 , 2.4345703125 , 18.5924297924 , 12.294993895 , -104.357509158 , -12.9318237305 , 8.47625732422 , 7.40814208984 
2018/05/17 17:45:11.268938 , -2.662109375 , 1.828125 , 2.4345703125 , 18.5924297924 , 12.294993895 , -104.357509158 , -5.37109375 , 4.89807128906 , 1.41906738281 
2018/05/17 17:45:11.561434 , -2.6708984375 , 1.9326171875 , 2.279296875 , 18.5924297924 , 12.294993895 , -104.357509158 , -5.37109375 , 4.89807128906 , 1.41906738281 
2018/05/17 17:45:11.853952 , -2.6708984375 , 1.9326171875 , 2.279296875 , 18.5924297924 , 12.294993895 , -104.357509158 , -5.37109375 , 4.89807128906 , 1.41906738281 
2018/05/17 17:45:12.146458 , -2.6708984375 , 1.9326171875 , 2.279296875 , 18.5924297924 , 12.294993895 , -104.357509158 , -2.17437744141 , 3.94439697266 , -3.23486328125 
2018/05/17 17:45:12.438942 , -2.505859375 , 1.70703125 , 2.7744140625 , 18.5924297924 , 12.294993895 , -104.357509158 , -2.17437744141 , 3.94439697266 , -3.23486328125 
2018/05/17 17:45:12.731444 , -2.505859375 , 1.70703125 , 2.7744140625 , 18.5924297924 , 12.294993895 , -104.357509158 , -2.17437744141 , 3.94439697266 , -3.23486328125 
2018/05/17 17:45:13.023974 , -2.505859375 , 1.70703125 , 2.7744140625 , 18.5924297924 , 12.294993895 , -104.357509158 , -2.17437744141 , 3.94439697266 , -3.23486328125 
2018/05/17 17:45:13.316509 , -2.583984375 , 1.9833984375 , 2.5244140625 , 18.5924297924 , 12.294993895 , -104.357509158 , -3.31115722656 , 2.18200683594 , -1.61743164062 
2018/05/17 17:45:13.608970 , -2.583984375 , 1.9833984375 , 2.5244140625 , 18.5924297924 , 12.294993895 , -104.357509158 , -3.31115722656 , 2.18200683594 , -1.61743164062 
2018/05/17 17:45:13.901472 , -2.583984375 , 1.9833984375 , 2.5244140625 , 18.5924297924 , 12.294993895 , -104.357509158 , -3.31115722656 , 2.18200683594 , -1.61743164062 
2018/05/17 17:45:14.194680 , -2.583984375 , 1.9833984375 , 2.5244140625 , 18.5924297924 , 12.294993895 , -104.357509158 , -4.10461425781 , 5.06591796875 , 0.205993652344 
2018/05/17 17:45:14.487828 , -2.8525390625 , 1.671875 , 2.669921875 , 18.5924297924 , 12.294993895 , -104.357509158 , -4.10461425781 , 5.06591796875 , 0.205993652344 
2018/05/17 17:45:14.781131 , -2.8525390625 , 1.671875 , 2.669921875 , 18.5924297924 , 12.294993895 , -104.357509158 , -4.10461425781 , 5.06591796875 , 0.205993652344 
2018/05/17 17:45:15.074438 , -2.8525390625 , 1.671875 , 2.669921875 , 18.5924297924 , 12.294993895 , -104.357509158 , -4.10461425781 , 5.06591796875 , 0.205993652344 
2018/05/17 17:45:15.367695 , -2.5712890625 , 1.703125 , 2.609375 , 18.5924297924 , 12.294993895 , -104.357509158 , -3.93676757812 , 3.97491455078 , -1.77001953125 
2018/05/17 17:45:15.661084 , -2.5712890625 , 1.703125 , 2.609375 , 18.5924297924 , 12.294993895 , -104.357509158 , -3.93676757812 , 3.97491455078 , -1.77001953125 
2018/05/17 17:45:15.954242 , -2.5712890625 , 1.703125 , 2.609375 , 18.5924297924 , 12.294993895 , -104.357509158 , -3.93676757812 , 3.97491455078 , -1.77001953125 
2018/05/17 17:45:16.247441 , -2.5712890625 , 1.703125 , 2.609375 , 18.5924297924 , 12.294993895 , -104.357509158 , -3.02886962891 , 4.01306152344 , -1.23596191406 
2018/05/17 17:45:16.540650 , -2.3828125 , 1.8515625 , 2.5078125 , 18.5924297924 , 12.294993895 , -104.357509158 , -3.02886962891 , 4.01306152344 , -1.23596191406 
2018/05/17 17:45:16.833862 , -2.3828125 , 1.8515625 , 2.5078125 , 18.5924297924 , 12.294993895 , -104.357509158 , -3.02886962891 , 4.01306152344 , -1.23596191406 
2018/05/17 17:45:17.127069 , -2.3828125 , 1.8515625 , 2.5078125 , 18.5924297924 , 12.294993895 , -104.357509158 , -3.99017333984 , 4.60052490234 , 1.36566162109 
2018/05/17 17:45:17.420227 , -2.86328125 , 1.47265625 , 2.4814453125 , 18.5924297924 , 12.294993895 , -104.357509158 , -3.99017333984 , 4.60052490234 , 1.36566162109 
2018/05/17 17:45:17.713390 , -2.86328125 , 1.47265625 , 2.4814453125 , 18.5924297924 , 12.294993895 , -104.357509158 , -3.99017333984 , 4.60052490234 , 1.36566162109 
2018/05/17 17:45:18.006562 , -2.86328125 , 1.47265625 , 2.4814453125 , 18.5924297924 , 12.294993895 , -104.357509158 , -3.99017333984 , 4.60052490234 , 1.36566162109 
2018/05/17 17:45:18.299683 , -2.7060546875 , 1.59765625 , 2.46484375 , 18.5924297924 , 12.294993895 , -104.357509158 , -3.84521484375 , 4.05120849609 , 0.770568847656 
2018/05/17 17:45:18.592849 , -2.7060546875 , 1.59765625 , 2.46484375 , 18.5924297924 , 12.294993895 , -104.357509158 , -3.84521484375 , 4.05120849609 , 0.770568847656 
2018/05/17 17:45:18.885944 , -2.7060546875 , 1.59765625 , 2.46484375 , 18.5924297924 , 12.294993895 , -104.357509158 , -3.84521484375 , 4.05120849609 , 0.770568847656 
2018/05/17 17:45:19.179052 , -2.7060546875 , 1.59765625 , 2.46484375 , 18.5924297924 , 12.294993895 , -104.357509158 , -3.83758544922 , 4.61578369141 , 1.32751464844 
2018/05/17 17:45:19.472156 , -2.4736328125 , 1.8310546875 , 2.3564453125 , 18.5924297924 , 12.294993895 , -104.357509158 , -3.83758544922 , 4.61578369141 , 1.32751464844 
2018/05/17 17:45:19.765220 , -2.4736328125 , 1.8310546875 , 2.3564453125 , 18.5924297924 , 12.294993895 , -104.357509158 , -3.83758544922 , 4.61578369141 , 1.32751464844 
2018/05/17 17:45:20.058303 , -2.4736328125 , 1.8310546875 , 2.3564453125 , 18.5924297924 , 12.294993895 , -104.357509158 , -3.83758544922 , 4.61578369141 , 1.32751464844 
2018/05/17 17:45:20.351365 , -2.77734375 , 1.58203125 , 2.6103515625 , 18.5924297924 , 12.294993895 , -104.357509158 , -3.7841796875 , 5.64575195312 , -1.38854980469 
2018/05/17 17:45:20.644427 , -2.77734375 , 1.58203125 , 2.6103515625 , 18.5924297924 , 12.294993895 , -104.357509158 , -3.7841796875 , 5.64575195312 , -1.38854980469 
2018/05/17 17:45:20.937467 , -2.77734375 , 1.58203125 , 2.6103515625 , 18.5924297924 , 12.294993895 , -104.357509158 , -3.7841796875 , 5.64575195312 , -1.38854980469 
2018/05/17 17:45:21.230505 , -2.77734375 , 1.58203125 , 2.6103515625 , 18.5924297924 , 12.294993895 , -104.357509158 , -5.03540039062 , 3.39508056641 , 1.20544433594 
2018/05/17 17:45:21.523531 , -2.6591796875 , 1.6962890625 , 2.205078125 , 18.5924297924 , 12.294993895 , -104.357509158 , -5.03540039062 , 3.39508056641 , 1.20544433594 
2018/05/17 17:45:21.816516 , -2.6591796875 , 1.6962890625 , 2.205078125 , 18.5924297924 , 12.294993895 , -104.357509158 , -5.03540039062 , 3.39508056641 , 1.20544433594 
2018/05/17 17:45:22.109536 , -2.6591796875 , 1.6962890625 , 2.205078125 , 18.5924297924 , 12.294993895 , -104.357509158 , -5.03540039062 , 3.39508056641 , 1.20544433594 
2018/05/17 17:45:22.402526 , -2.5859375 , 1.8623046875 , 2.541015625 , 18.5924297924 , 12.294993895 , -104.357509158 , -5.06591796875 , 5.05828857422 , -1.19018554688 
2018/05/17 17:45:22.695609 , -2.5859375 , 1.8623046875 , 2.541015625 , 18.5924297924 , 12.294993895 , -104.357509158 , -5.06591796875 , 5.05828857422 , -1.19018554688 
2018/05/17 17:45:22.988496 , -2.5859375 , 1.8623046875 , 2.541015625 , 18.5924297924 , 12.294993895 , -104.357509158 , -5.06591796875 , 5.05828857422 , -1.19018554688 
2018/05/17 17:45:23.282439 , -2.5859375 , 1.8623046875 , 2.541015625 , 32.9865689866 , 16.1934065934 , -93.8617826618 , -4.86755371094 , 4.43267822266 , -0.0457763671875 
2018/05/17 17:45:23.574410 , -2.79296875 , 1.73046875 , 2.5302734375 , 32.9865689866 , 16.1934065934 , -93.8617826618 , -4.86755371094 , 4.43267822266 , -0.0457763671875 
2018/05/17 17:45:23.867351 , -2.79296875 , 1.73046875 , 2.5302734375 , 32.9865689866 , 16.1934065934 , -93.8617826618 , -4.86755371094 , 4.43267822266 , -0.0457763671875 
2018/05/17 17:45:24.160439 , -2.79296875 , 1.73046875 , 2.5302734375 , 32.9865689866 , 16.1934065934 , -93.8617826618 , -4.75311279297 , 5.03540039062 , -1.28173828125 
2018/05/17 17:45:24.453261 , -2.44921875 , 1.63671875 , 2.7265625 , 32.8366300366 , 16.3433455433 , -93.7118437118 , -4.75311279297 , 5.03540039062 , -1.28173828125 
2018/05/17 17:45:24.746156 , -2.44921875 , 1.63671875 , 2.7265625 , 32.8366300366 , 16.3433455433 , -93.7118437118 , -4.75311279297 , 5.03540039062 , -1.28173828125 
2018/05/17 17:45:25.039064 , -2.44921875 , 1.63671875 , 2.7265625 , 32.8366300366 , 16.3433455433 , -93.7118437118 , -4.75311279297 , 5.03540039062 , -1.28173828125 
2018/05/17 17:45:25.331988 , -2.8037109375 , 1.587890625 , 2.4736328125 , 33.4363858364 , 15.8935286935 , -96.4107448107 , -6.75964355469 , 6.11877441406 , 0.00762939453125 
2018/05/17 17:45:25.624875 , -2.8037109375 , 1.587890625 , 2.4736328125 , 33.4363858364 , 15.8935286935 , -96.4107448107 , -6.75964355469 , 6.11877441406 , 0.00762939453125 
2018/05/17 17:45:25.917770 , -2.8037109375 , 1.587890625 , 2.4736328125 , 33.4363858364 , 15.8935286935 , -96.4107448107 , -6.75964355469 , 6.11877441406 , 0.00762939453125 
2018/05/17 17:45:26.210650 , -2.8037109375 , 1.587890625 , 2.4736328125 , 32.2368742369 , 16.7931623932 , -94.4615384615 , -3.87573242188 , 4.0283203125 , -2.54821777344 
2018/05/17 17:45:26.503537 , -2.7041015625 , 1.57421875 , 2.7314453125 , 32.2368742369 , 16.7931623932 , -94.4615384615 , -3.87573242188 , 4.0283203125 , -2.54821777344 
2018/05/17 17:45:26.796408 , -2.7041015625 , 1.57421875 , 2.7314453125 , 32.2368742369 , 16.7931623932 , -94.4615384615 , -3.87573242188 , 4.0283203125 , -2.54821777344 
2018/05/17 17:45:27.089286 , -2.7041015625 , 1.57421875 , 2.7314453125 , 32.2368742369 , 16.7931623932 , -94.4615384615 , -3.87573242188 , 4.0283203125 , -2.54821777344 
2018/05/17 17:45:27.382153 , -2.6494140625 , 1.5087890625 , 2.6171875 , 33.7362637363 , 15.7435897436 , -94.4615384615 , -2.51007080078 , 4.57000732422 , -0.167846679688 
2018/05/17 17:45:27.674982 , -2.6494140625 , 1.5087890625 , 2.6171875 , 33.7362637363 , 15.7435897436 , -94.4615384615 , -2.51007080078 , 4.57000732422 , -0.167846679688 
2018/05/17 17:45:27.967834 , -2.6494140625 , 1.5087890625 , 2.6171875 , 33.7362637363 , 15.7435897436 , -94.4615384615 , -2.51007080078 , 4.57000732422 , -0.167846679688 
2018/05/17 17:45:28.260669 , -2.6494140625 , 1.5087890625 , 2.6171875 , 34.9357753358 , 15.8935286935 , -95.3611721612 , -4.33349609375 , 3.92913818359 , -1.23596191406 
2018/05/17 17:45:28.553488 , -2.7841796875 , 1.9365234375 , 2.3232421875 , 34.9357753358 , 15.8935286935 , -95.3611721612 , -4.33349609375 , 3.92913818359 , -1.23596191406 
2018/05/17 17:45:28.846321 , -2.7841796875 , 1.9365234375 , 2.3232421875 , 34.9357753358 , 15.8935286935 , -95.3611721612 , -4.33349609375 , 3.92913818359 , -1.23596191406 
2018/05/17 17:45:29.139142 , -2.7841796875 , 1.9365234375 , 2.3232421875 , 34.9357753358 , 15.8935286935 , -95.3611721612 , -3.08227539062 , 4.24194335938 , -0.18310546875 
2018/05/17 17:45:29.431990 , -2.6572265625 , 1.7578125 , 2.3837890625 , 33.2864468864 , 16.7931623932 , -95.5111111111 , -3.08227539062 , 4.24194335938 , -0.18310546875 
2018/05/17 17:45:29.724768 , -2.6572265625 , 1.7578125 , 2.3837890625 , 33.2864468864 , 16.7931623932 , -95.5111111111 , -3.08227539062 , 4.24194335938 , -0.18310546875 
2018/05/17 17:45:30.017585 , -2.6572265625 , 1.7578125 , 2.3837890625 , 33.2864468864 , 16.7931623932 , -95.5111111111 , -3.08227539062 , 4.24194335938 , -0.18310546875 
2018/05/17 17:45:30.310369 , -2.7236328125 , 1.802734375 , 2.189453125 , 32.8366300366 , 15.2937728938 , -95.3611721612 , -3.79943847656 , 4.32586669922 , 1.07574462891 
2018/05/17 17:45:30.603223 , -2.7236328125 , 1.802734375 , 2.189453125 , 32.8366300366 , 15.2937728938 , -95.3611721612 , -3.79943847656 , 4.32586669922 , 1.07574462891 
2018/05/17 17:45:30.895949 , -2.7236328125 , 1.802734375 , 2.189453125 , 32.8366300366 , 15.2937728938 , -95.3611721612 , -3.79943847656 , 4.32586669922 , 1.07574462891 
2018/05/17 17:45:31.188849 , -2.7236328125 , 1.802734375 , 2.189453125 , 32.8366300366 , 15.2937728938 , -95.3611721612 , -5.27191162109 , 4.63104248047 , 1.49536132812 
2018/05/17 17:45:31.481528 , -2.787109375 , 1.7392578125 , 2.341796875 , 35.3855921856 , 17.242979243 , -94.4615384615 , -5.27191162109 , 4.63104248047 , 1.49536132812 
2018/05/17 17:45:31.774263 , -2.787109375 , 1.7392578125 , 2.341796875 , 35.3855921856 , 17.242979243 , -94.4615384615 , -5.27191162109 , 4.63104248047 , 1.49536132812 
2018/05/17 17:45:32.067034 , -2.787109375 , 1.7392578125 , 2.341796875 , 35.3855921856 , 17.242979243 , -94.4615384615 , -5.27191162109 , 4.63104248047 , 1.49536132812 
2018/05/17 17:45:32.359796 , -2.6064453125 , 1.734375 , 2.375 , 32.8366300366 , 14.2442002442 , -96.4107448107 , -4.85229492188 , 6.55364990234 , -0.831604003906 
2018/05/17 17:45:32.652561 , -2.6064453125 , 1.734375 , 2.375 , 32.8366300366 , 14.2442002442 , -96.4107448107 , -4.85229492188 , 6.55364990234 , -0.831604003906 
2018/05/17 17:45:32.945323 , -2.6064453125 , 1.734375 , 2.375 , 32.8366300366 , 14.2442002442 , -96.4107448107 , -4.85229492188 , 6.55364990234 , -0.831604003906 
2018/05/17 17:45:33.238047 , -2.6064453125 , 1.734375 , 2.375 , 33.4363858364 , 14.843956044 , -97.7601953602 , -4.37164306641 , 3.21960449219 , -1.02996826172 
2018/05/17 17:45:33.530776 , -2.8642578125 , 1.9619140625 , 2.1494140625 , 33.4363858364 , 14.843956044 , -97.7601953602 , -4.37164306641 , 3.21960449219 , -1.02996826172 
2018/05/17 17:45:33.823506 , -2.8642578125 , 1.9619140625 , 2.1494140625 , 33.4363858364 , 14.843956044 , -97.7601953602 , -4.37164306641 , 3.21960449219 , -1.02996826172 
2018/05/17 17:45:34.116259 , -2.8642578125 , 1.9619140625 , 2.1494140625 , 33.4363858364 , 14.843956044 , -97.7601953602 , -4.07409667969 , 4.11224365234 , 0.823974609375 
2018/05/17 17:45:34.409067 , -2.662109375 , 1.73828125 , 2.3994140625 , 31.936996337 , 15.1438339438 , -95.5111111111 , -4.07409667969 , 4.11224365234 , 0.823974609375 
2018/05/17 17:45:34.701712 , -2.662109375 , 1.73828125 , 2.3994140625 , 31.936996337 , 15.1438339438 , -95.5111111111 , -4.07409667969 , 4.11224365234 , 0.823974609375 
2018/05/17 17:45:34.994439 , -2.662109375 , 1.73828125 , 2.3994140625 , 31.936996337 , 15.1438339438 , -95.5111111111 , -4.07409667969 , 4.11224365234 , 0.823974609375 
2018/05/17 17:45:35.288141 , -2.662109375 , 1.73828125 , 2.3994140625 , 32.5367521368 , 15.1438339438 , -97.9101343101 , -2.27355957031 , 6.00433349609 , -1.18255615234 
2018/05/17 17:45:35.579848 , -2.5576171875 , 1.6416015625 , 2.2158203125 , 32.5367521368 , 15.1438339438 , -97.9101343101 , -2.27355957031 , 6.00433349609 , -1.18255615234 
2018/05/17 17:45:35.872571 , -2.5576171875 , 1.6416015625 , 2.2158203125 , 32.5367521368 , 15.1438339438 , -97.9101343101 , -2.27355957031 , 6.00433349609 , -1.18255615234 
2018/05/17 17:45:36.165260 , -2.5576171875 , 1.6416015625 , 2.2158203125 , 32.5367521368 , 15.1438339438 , -97.9101343101 , -2.8076171875 , 3.91387939453 , -0.663757324219 
2018/05/17 17:45:36.457964 , -2.5 , 1.828125 , 2.31640625 , 34.336019536 , 14.694017094 , -96.5606837607 , -2.8076171875 , 3.91387939453 , -0.663757324219 
2018/05/17 17:45:36.750664 , -2.5 , 1.828125 , 2.31640625 , 34.336019536 , 14.694017094 , -96.5606837607 , -2.8076171875 , 3.91387939453 , -0.663757324219 
2018/05/17 17:45:37.043353 , -2.5 , 1.828125 , 2.31640625 , 34.336019536 , 14.694017094 , -96.5606837607 , -2.8076171875 , 3.91387939453 , -0.663757324219 
2018/05/17 17:45:37.336042 , -2.873046875 , 1.2607421875 , 2.669921875 , 33.8862026862 , 14.843956044 , -96.4107448107 , -17.2805786133 , 28.6712646484 , 13.5803222656 
2018/05/17 17:45:37.628735 , -2.873046875 , 1.2607421875 , 2.669921875 , 33.8862026862 , 14.843956044 , -96.4107448107 , -17.2805786133 , 28.6712646484 , 13.5803222656 
2018/05/17 17:45:37.921414 , -2.873046875 , 1.2607421875 , 2.669921875 , 33.8862026862 , 14.843956044 , -96.4107448107 , -17.2805786133 , 28.6712646484 , 13.5803222656 
2018/05/17 17:45:38.214091 , -2.873046875 , 1.2607421875 , 2.669921875 , 31.3372405372 , 15.2937728938 , -95.9609279609 , 19.2031860352 , -34.0957641602 , 1.08337402344 
2018/05/17 17:45:38.506757 , -1.939453125 , 2.05859375 , 3.0107421875 , 31.3372405372 , 15.2937728938 , -95.9609279609 , 19.2031860352 , -34.0957641602 , 1.08337402344 
2018/05/17 17:45:38.799434 , -1.939453125 , 2.05859375 , 3.0107421875 , 31.3372405372 , 15.2937728938 , -95.9609279609 , 19.2031860352 , -34.0957641602 , 1.08337402344 
2018/05/17 17:45:39.092112 , -1.939453125 , 2.05859375 , 3.0107421875 , 31.3372405372 , 15.2937728938 , -95.9609279609 , 19.2031860352 , -34.0957641602 , 1.08337402344 
2018/05/17 17:45:39.384779 , -2.79296875 , 1.80859375 , 2.59375 , 33.2864468864 , 14.694017094 , -100.609035409 , -9.65881347656 , -6.14166259766 , 5.09643554688 
2018/05/17 17:45:39.677444 , -2.79296875 , 1.80859375 , 2.59375 , 33.2864468864 , 14.694017094 , -100.609035409 , -9.65881347656 , -6.14166259766 , 5.09643554688 
2018/05/17 17:45:39.970111 , -2.79296875 , 1.80859375 , 2.59375 , 33.2864468864 , 14.694017094 , -100.609035409 , -9.65881347656 , -6.14166259766 , 5.09643554688 
2018/05/17 17:45:40.262817 , -2.79296875 , 1.80859375 , 2.59375 , 28.6383394383 , 15.5936507937 , -104.507448107 , -6.54602050781 , 25.9170532227 , 10.6964111328 
2018/05/17 17:45:40.555397 , -2.673828125 , 1.52734375 , 2.525390625 , 28.6383394383 , 15.5936507937 , -104.507448107 , -6.54602050781 , 25.9170532227 , 10.6964111328 
2018/05/17 17:45:40.848053 , -2.673828125 , 1.52734375 , 2.525390625 , 28.6383394383 , 15.5936507937 , -104.507448107 , -6.54602050781 , 25.9170532227 , 10.6964111328 
2018/05/17 17:45:41.140712 , -2.673828125 , 1.52734375 , 2.525390625 , 28.6383394383 , 15.5936507937 , -104.507448107 , -5.97381591797 , 25.3219604492 , -18.7835693359 
2018/05/17 17:45:41.433351 , -2.3046875 , 1.9306640625 , 1.919921875 , 23.5404151404 , 16.1934065934 , -110.205128205 , -5.97381591797 , 25.3219604492 , -18.7835693359 
2018/05/17 17:45:41.725994 , -2.3046875 , 1.9306640625 , 1.919921875 , 23.5404151404 , 16.1934065934 , -110.205128205 , -5.97381591797 , 25.3219604492 , -18.7835693359 
2018/05/17 17:45:42.018637 , -2.3046875 , 1.9306640625 , 1.919921875 , 23.5404151404 , 16.1934065934 , -110.205128205 , -5.97381591797 , 25.3219604492 , -18.7835693359 
2018/05/17 17:45:42.311279 , -2.212890625 , 1.8046875 , 3.021484375 , 16.4932844933 , 17.8427350427 , -113.653724054 , -6.96563720703 , -34.7671508789 , -5.88989257812 
2018/05/17 17:45:42.603921 , -2.212890625 , 1.8046875 , 3.021484375 , 16.4932844933 , 17.8427350427 , -113.653724054 , -6.96563720703 , -34.7671508789 , -5.88989257812 
2018/05/17 17:45:42.896555 , -2.212890625 , 1.8046875 , 3.021484375 , 16.4932844933 , 17.8427350427 , -113.653724054 , -6.96563720703 , -34.7671508789 , -5.88989257812 
2018/05/17 17:45:43.189180 , -2.212890625 , 1.8046875 , 3.021484375 , 16.4932844933 , 17.8427350427 , -113.653724054 , 8.88061523438 , -64.2700195312 , -6.87408447266 
2018/05/17 17:45:43.481817 , -2.982421875 , 1.1044921875 , 1.76171875 , 14.694017094 , 19.3421245421 , -116.952380952 , 8.88061523438 , -64.2700195312 , -6.87408447266 
2018/05/17 17:45:43.774429 , -2.982421875 , 1.1044921875 , 1.76171875 , 14.694017094 , 19.3421245421 , -116.952380952 , 8.88061523438 , -64.2700195312 , -6.87408447266 
2018/05/17 17:45:44.067062 , -2.982421875 , 1.1044921875 , 1.76171875 , 14.694017094 , 19.3421245421 , -116.952380952 , 8.88061523438 , -64.2700195312 , -6.87408447266 
2018/05/17 17:45:44.359691 , -3.0166015625 , 1.0771484375 , 2.4111328125 , 11.6952380952 , 20.5416361416 , -120.251037851 , -10.5209350586 , 8.52966308594 , 20.1950073242 
2018/05/17 17:45:44.652305 , -3.0166015625 , 1.0771484375 , 2.4111328125 , 11.6952380952 , 20.5416361416 , -120.251037851 , -10.5209350586 , 8.52966308594 , 20.1950073242 
2018/05/17 17:45:44.944910 , -3.0166015625 , 1.0771484375 , 2.4111328125 , 11.6952380952 , 20.5416361416 , -120.251037851 , -10.5209350586 , 8.52966308594 , 20.1950073242 
2018/05/17 17:45:45.237516 , -3.0166015625 , 1.0771484375 , 2.4111328125 , 12.5948717949 , 22.7907203907 , -109.455433455 , -27.8854370117 , 67.5048828125 , 23.0178833008 
2018/05/17 17:45:45.530148 , -1.861328125 , 3.8056640625 , 2.2626953125 , 12.5948717949 , 22.7907203907 , -109.455433455 , -27.8854370117 , 67.5048828125 , 23.0178833008 
2018/05/17 17:45:45.822738 , -1.861328125 , 3.8056640625 , 2.2626953125 , 12.5948717949 , 22.7907203907 , -109.455433455 , -27.8854370117 , 67.5048828125 , 23.0178833008 
2018/05/17 17:45:46.115380 , -1.861328125 , 3.8056640625 , 2.2626953125 , 12.5948717949 , 22.7907203907 , -109.455433455 , -11.0931396484 , 58.1359863281 , 10.3225708008 
2018/05/17 17:45:46.407962 , -1.97265625 , 0.005859375 , 2.939453125 , 20.9914529915 , 23.2405372405 , -97.1604395604 , -11.0931396484 , 58.1359863281 , 10.3225708008 
2018/05/17 17:45:46.700560 , -1.97265625 , 0.005859375 , 2.939453125 , 20.9914529915 , 23.2405372405 , -97.1604395604 , -11.0931396484 , 58.1359863281 , 10.3225708008 
2018/05/17 17:45:46.993205 , -1.97265625 , 0.005859375 , 2.939453125 , 20.9914529915 , 23.2405372405 , -97.1604395604 , -11.0931396484 , 58.1359863281 , 10.3225708008 
2018/05/17 17:45:47.285764 , -1.97265625 , 0.005859375 , 2.939453125 , 20.9914529915 , 23.2405372405 , -97.1604395604 , 18.7225341797 , 46.6918945312 , -18.2952880859 
2018/05/17 17:45:47.578383 , -0.796875 , 1.8818359375 , 2.1611328125 , 20.9914529915 , 23.2405372405 , -97.1604395604 , 18.7225341797 , 46.6918945312 , -18.2952880859 
2018/05/17 17:45:47.870975 , -0.796875 , 1.8818359375 , 2.1611328125 , 20.9914529915 , 23.2405372405 , -97.1604395604 , 18.7225341797 , 46.6918945312 , -18.2952880859 
2018/05/17 17:45:48.163585 , -0.796875 , 1.8818359375 , 2.1611328125 , 20.9914529915 , 23.2405372405 , -97.1604395604 , 1.42669677734 , 8.43811035156 , 10.9481811523 
2018/05/17 17:45:48.456153 , -3.650390625 , 1.912109375 , 3.55078125 , 20.9914529915 , 23.2405372405 , -97.1604395604 , 1.42669677734 , 8.43811035156 , 10.9481811523 
2018/05/17 17:45:48.748738 , -3.650390625 , 1.912109375 , 3.55078125 , 20.9914529915 , 23.2405372405 , -97.1604395604 , 1.42669677734 , 8.43811035156 , 10.9481811523 
2018/05/17 17:45:49.041323 , -3.650390625 , 1.912109375 , 3.55078125 , 20.9914529915 , 23.2405372405 , -97.1604395604 , 1.42669677734 , 8.43811035156 , 10.9481811523 
2018/05/17 17:45:49.333924 , -2.0927734375 , 1.21875 , 1.3466796875 , 20.9914529915 , 23.2405372405 , -97.1604395604 , -1.79290771484 , 56.7932128906 , -3.47900390625 
2018/05/17 17:45:49.626530 , -2.0927734375 , 1.21875 , 1.3466796875 , 20.9914529915 , 23.2405372405 , -97.1604395604 , -1.79290771484 , 56.7932128906 , -3.47900390625 
2018/05/17 17:45:49.919092 , -2.0927734375 , 1.21875 , 1.3466796875 , 20.9914529915 , 23.2405372405 , -97.1604395604 , -1.79290771484 , 56.7932128906 , -3.47900390625 
2018/05/17 17:45:50.211691 , -2.0927734375 , 1.21875 , 1.3466796875 , 20.9914529915 , 23.2405372405 , -97.1604395604 , -6.52313232422 , 65.6204223633 , -9.17053222656 
2018/05/17 17:45:50.504255 , -2.45703125 , 2.6298828125 , 2.0263671875 , 20.9914529915 , 23.2405372405 , -97.1604395604 , -6.52313232422 , 65.6204223633 , -9.17053222656 
2018/05/17 17:45:50.796845 , -2.45703125 , 2.6298828125 , 2.0263671875 , 20.9914529915 , 23.2405372405 , -97.1604395604 , -6.52313232422 , 65.6204223633 , -9.17053222656 
2018/05/17 17:45:51.089422 , -2.45703125 , 2.6298828125 , 2.0263671875 , 20.9914529915 , 23.2405372405 , -97.1604395604 , -6.52313232422 , 65.6204223633 , -9.17053222656 
2018/05/17 17:45:51.382008 , -2.087890625 , 1.4970703125 , 2.70703125 , 20.9914529915 , 23.2405372405 , -97.1604395604 , 13.5803222656 , -20.4849243164 , 23.2315063477 
2018/05/17 17:45:51.674586 , -2.087890625 , 1.4970703125 , 2.70703125 , 20.9914529915 , 23.2405372405 , -97.1604395604 , 13.5803222656 , -20.4849243164 , 23.2315063477 
2018/05/17 17:45:51.967143 , -2.087890625 , 1.4970703125 , 2.70703125 , 20.9914529915 , 23.2405372405 , -97.1604395604 , 13.5803222656 , -20.4849243164 , 23.2315063477 
2018/05/17 17:45:52.259709 , -2.087890625 , 1.4970703125 , 2.70703125 , 20.9914529915 , 23.2405372405 , -97.1604395604 , -3.34167480469 , -64.3463134766 , -11.3143920898 
2018/05/17 17:45:52.552426 , -2.9404296875 , 1.59765625 , 2.2919921875 , 20.9914529915 , 23.2405372405 , -97.1604395604 , -3.34167480469 , -64.3463134766 , -11.3143920898 
2018/05/17 17:45:52.844869 , -2.9404296875 , 1.59765625 , 2.2919921875 , 20.9914529915 , 23.2405372405 , -97.1604395604 , -3.34167480469 , -64.3463134766 , -11.3143920898 
2018/05/17 17:45:53.137432 , -2.9404296875 , 1.59765625 , 2.2919921875 , 20.9914529915 , 23.2405372405 , -97.1604395604 , -3.46374511719 , 22.6364135742 , 7.21740722656 
2018/05/17 17:45:53.430005 , -2.9140625 , 1.23046875 , 2.6513671875 , 20.9914529915 , 23.2405372405 , -97.1604395604 , -3.46374511719 , 22.6364135742 , 7.21740722656 
2018/05/17 17:45:53.722579 , -2.9140625 , 1.23046875 , 2.6513671875 , 20.9914529915 , 23.2405372405 , -97.1604395604 , -3.46374511719 , 22.6364135742 , 7.21740722656 
2018/05/17 17:45:54.015132 , -2.9140625 , 1.23046875 , 2.6513671875 , 20.9914529915 , 23.2405372405 , -97.1604395604 , -3.46374511719 , 22.6364135742 , 7.21740722656 
2018/05/17 17:45:54.307696 , -2.9140625 , 1.23046875 , 2.6513671875 , 20.9914529915 , 23.2405372405 , -97.1604395604 , -41.6717529297 , -5.17272949219 , 3.60107421875 
2018/05/17 17:45:54.600273 , -2.7119140625 , 1.376953125 , 2.890625 , 20.9914529915 , 23.2405372405 , -97.1604395604 , -41.6717529297 , -5.17272949219 , 3.60107421875 
2018/05/17 17:45:54.892858 , -2.7119140625 , 1.376953125 , 2.890625 , 20.9914529915 , 23.2405372405 , -97.1604395604 , -41.6717529297 , -5.17272949219 , 3.60107421875 
2018/05/17 17:45:55.185386 , -2.7119140625 , 1.376953125 , 2.890625 , 20.9914529915 , 23.2405372405 , -97.1604395604 , -29.1595458984 , 41.4886474609 , 45.7153320312 
2018/05/17 17:45:55.477960 , -1.771484375 , 1.8125 , 2.7509765625 , 20.9914529915 , 23.2405372405 , -97.1604395604 , -29.1595458984 , 41.4886474609 , 45.7153320312 
2018/05/17 17:45:55.770522 , -1.771484375 , 1.8125 , 2.7509765625 , 20.9914529915 , 23.2405372405 , -97.1604395604 , -29.1595458984 , 41.4886474609 , 45.7153320312 
2018/05/17 17:45:56.063110 , -1.771484375 , 1.8125 , 2.7509765625 , 20.9914529915 , 23.2405372405 , -97.1604395604 , -29.1595458984 , 41.4886474609 , 45.7153320312 
2018/05/17 17:45:56.355629 , -3.26953125 , 1.6220703125 , 2.6767578125 , 20.9914529915 , 23.2405372405 , -97.1604395604 , -5.38635253906 , 17.1356201172 , 40.3213500977 
2018/05/17 17:45:56.648180 , -3.26953125 , 1.6220703125 , 2.6767578125 , 20.9914529915 , 23.2405372405 , -97.1604395604 , -5.38635253906 , 17.1356201172 , 40.3213500977 
2018/05/17 17:45:56.940732 , -3.26953125 , 1.6220703125 , 2.6767578125 , 20.9914529915 , 23.2405372405 , -97.1604395604 , -5.38635253906 , 17.1356201172 , 40.3213500977 
2018/05/17 17:45:57.233310 , -3.26953125 , 1.6220703125 , 2.6767578125 , 20.9914529915 , 23.2405372405 , -97.1604395604 , -61.4929199219 , 37.0635986328 , 45.9518432617 
2018/05/17 17:45:57.525830 , -3.0673828125 , 1.8291015625 , 2.37109375 , 20.9914529915 , 23.2405372405 , -97.1604395604 , -61.4929199219 , 37.0635986328 , 45.9518432617 
2018/05/17 17:45:57.818370 , -3.0673828125 , 1.8291015625 , 2.37109375 , 20.9914529915 , 23.2405372405 , -97.1604395604 , -61.4929199219 , 37.0635986328 , 45.9518432617 
2018/05/17 17:45:58.110939 , -3.0673828125 , 1.8291015625 , 2.37109375 , 20.9914529915 , 23.2405372405 , -97.1604395604 , -61.4929199219 , 37.0635986328 , 45.9518432617 
2018/05/17 17:45:58.403484 , -2.544921875 , 1.5732421875 , 1.9755859375 , 20.9914529915 , 23.2405372405 , -97.1604395604 , -7.53021240234 , 19.287109375 , 3.67736816406 
2018/05/17 17:45:58.696064 , -2.544921875 , 1.5732421875 , 1.9755859375 , 20.9914529915 , 23.2405372405 , -97.1604395604 , -7.53021240234 , 19.287109375 , 3.67736816406 
2018/05/17 17:45:58.988606 , -2.544921875 , 1.5732421875 , 1.9755859375 , 20.9914529915 , 23.2405372405 , -97.1604395604 , -7.53021240234 , 19.287109375 , 3.67736816406 
2018/05/17 17:45:59.281131 , -2.7470703125 , 1.818359375 , 2.6767578125 , 20.9914529915 , 23.2405372405 , -97.1604395604 , -8.49151611328 , 5.63049316406 , 1.28936767578 
2018/05/17 17:45:59.622447 , -2.7470703125 , 1.818359375 , 2.6767578125 , 20.9914529915 , 23.2405372405 , -97.1604395604 , -8.49151611328 , 5.63049316406 , 1.28936767578 
2018/05/17 17:45:59.914994 , -2.7470703125 , 1.818359375 , 2.6767578125 , 20.9914529915 , 23.2405372405 , -97.1604395604 , -8.49151611328 , 5.63049316406 , 1.28936767578 
2018/05/17 17:46:00.207530 , -2.7470703125 , 1.818359375 , 2.6767578125 , 20.9914529915 , 23.2405372405 , -97.1604395604 , -4.77600097656 , 3.89099121094 , -1.14440917969 
2018/05/17 17:46:00.500070 , -2.69921875 , 1.6630859375 , 2.419921875 , 20.9914529915 , 23.2405372405 , -97.1604395604 , -4.77600097656 , 3.89099121094 , -1.14440917969 
2018/05/17 17:46:00.792615 , -2.69921875 , 1.6630859375 , 2.419921875 , 20.9914529915 , 23.2405372405 , -97.1604395604 , -4.77600097656 , 3.89099121094 , -1.14440917969 
2018/05/17 17:46:01.085168 , -2.69921875 , 1.6630859375 , 2.419921875 , 20.9914529915 , 23.2405372405 , -97.1604395604 , -4.77600097656 , 3.89099121094 , -1.14440917969 
2018/05/17 17:46:01.377701 , -2.4736328125 , 1.380859375 , 2.48046875 , 20.9914529915 , 23.2405372405 , -97.1604395604 , -4.67681884766 , 4.36401367188 , 0.1220703125 
2018/05/17 17:46:01.670210 , -2.4736328125 , 1.380859375 , 2.48046875 , 20.9914529915 , 23.2405372405 , -97.1604395604 , -4.67681884766 , 4.36401367188 , 0.1220703125 
2018/05/17 17:46:01.962832 , -2.4736328125 , 1.380859375 , 2.48046875 , 20.9914529915 , 23.2405372405 , -97.1604395604 , -4.67681884766 , 4.36401367188 , 0.1220703125 
2018/05/17 17:46:02.255335 , -2.4736328125 , 1.380859375 , 2.48046875 , 20.9914529915 , 23.2405372405 , -97.1604395604 , -4.16564941406 , 4.90570068359 , -1.37329101562 
2018/05/17 17:46:02.547867 , -2.7958984375 , 1.712890625 , 2.6533203125 , 20.9914529915 , 23.2405372405 , -97.1604395604 , -4.16564941406 , 4.90570068359 , -1.37329101562 
2018/05/17 17:46:02.840429 , -2.7958984375 , 1.712890625 , 2.6533203125 , 20.9914529915 , 23.2405372405 , -97.1604395604 , -4.16564941406 , 4.90570068359 , -1.37329101562 
2018/05/17 17:46:03.132994 , -2.7958984375 , 1.712890625 , 2.6533203125 , 20.9914529915 , 23.2405372405 , -97.1604395604 , -4.16564941406 , 4.90570068359 , -1.37329101562 
2018/05/17 17:46:03.425633 , -2.7958984375 , 1.6923828125 , 2.8427734375 , 20.9914529915 , 23.2405372405 , -97.1604395604 , -2.71606445312 , 5.39398193359 , -0.762939453125 
2018/05/17 17:46:03.718025 , -2.7958984375 , 1.6923828125 , 2.8427734375 , 20.9914529915 , 23.2405372405 , -97.1604395604 , -2.71606445312 , 5.39398193359 , -0.762939453125 
2018/05/17 17:46:04.010565 , -2.7958984375 , 1.6923828125 , 2.8427734375 , 20.9914529915 , 23.2405372405 , -97.1604395604 , -2.71606445312 , 5.39398193359 , -0.762939453125 
2018/05/17 17:46:04.303134 , -2.7958984375 , 1.6923828125 , 2.8427734375 , 22.041025641 , 19.642002442 , -82.1665445665 , -6.79016113281 , 4.41741943359 , -0.946044921875 
2018/05/17 17:46:04.595629 , -2.5546875 , 1.7822265625 , 2.65234375 , 22.041025641 , 19.642002442 , -82.1665445665 , -6.79016113281 , 4.41741943359 , -0.946044921875 
2018/05/17 17:46:04.888160 , -2.5546875 , 1.7822265625 , 2.65234375 , 22.041025641 , 19.642002442 , -82.1665445665 , -6.79016113281 , 4.41741943359 , -0.946044921875 
2018/05/17 17:46:05.180702 , -2.5546875 , 1.7822265625 , 2.65234375 , 22.041025641 , 19.642002442 , -82.1665445665 , -2.89916992188 , 5.44738769531 , 0.129699707031 
2018/05/17 17:46:05.473258 , -2.572265625 , 1.546875 , 2.576171875 , 21.2913308913 , 21.7411477411 , -81.8666666667 , -2.89916992188 , 5.44738769531 , 0.129699707031 
2018/05/17 17:46:05.765776 , -2.572265625 , 1.546875 , 2.576171875 , 21.2913308913 , 21.7411477411 , -81.8666666667 , -2.89916992188 , 5.44738769531 , 0.129699707031 
2018/05/17 17:46:06.058272 , -2.572265625 , 1.546875 , 2.576171875 , 21.2913308913 , 21.7411477411 , -81.8666666667 , -2.89916992188 , 5.44738769531 , 0.129699707031 
2018/05/17 17:46:06.350796 , -2.5498046875 , 1.537109375 , 2.4453125 , 22.4908424908 , 20.3916971917 , -83.2161172161 , -4.60052490234 , 4.28009033203 , -1.19018554688 
2018/05/17 17:46:06.643314 , -2.5498046875 , 1.537109375 , 2.4453125 , 22.4908424908 , 20.3916971917 , -83.2161172161 , -4.60052490234 , 4.28009033203 , -1.19018554688 
2018/05/17 17:46:06.935861 , -2.5498046875 , 1.537109375 , 2.4453125 , 22.4908424908 , 20.3916971917 , -83.2161172161 , -4.60052490234 , 4.28009033203 , -1.19018554688 
2018/05/17 17:46:07.228387 , -2.5498046875 , 1.537109375 , 2.4453125 , 22.4908424908 , 20.6915750916 , -82.6163614164 , -2.48718261719 , 3.7841796875 , -0.67138671875 
2018/05/17 17:46:07.520896 , -2.4912109375 , 1.95703125 , 2.7880859375 , 22.4908424908 , 20.6915750916 , -82.6163614164 , -2.48718261719 , 3.7841796875 , -0.67138671875 
2018/05/17 17:46:07.813417 , -2.4912109375 , 1.95703125 , 2.7880859375 , 22.4908424908 , 20.6915750916 , -82.6163614164 , -2.48718261719 , 3.7841796875 , -0.67138671875 
2018/05/17 17:46:08.105959 , -2.4912109375 , 1.95703125 , 2.7880859375 , 22.4908424908 , 20.6915750916 , -82.6163614164 , -2.48718261719 , 3.7841796875 , -0.67138671875 
2018/05/17 17:46:08.398488 , -2.529296875 , 1.7177734375 , 2.3671875 , 22.7907203907 , 21.7411477411 , -82.9162393162 , -1.0986328125 , 4.7607421875 , 0.137329101562 
2018/05/17 17:46:08.691013 , -2.529296875 , 1.7177734375 , 2.3671875 , 22.7907203907 , 21.7411477411 , -82.9162393162 , -1.0986328125 , 4.7607421875 , 0.137329101562 
2018/05/17 17:46:08.983561 , -2.529296875 , 1.7177734375 , 2.3671875 , 22.7907203907 , 21.7411477411 , -82.9162393162 , -1.0986328125 , 4.7607421875 , 0.137329101562 
2018/05/17 17:46:09.276074 , -2.529296875 , 1.7177734375 , 2.3671875 , 22.041025641 , 20.6915750916 , -83.2161172161 , -3.79180908203 , 5.55419921875 , -0.503540039062 
2018/05/17 17:46:09.568612 , -2.744140625 , 2.080078125 , 2.82421875 , 22.041025641 , 20.6915750916 , -83.2161172161 , -3.79180908203 , 5.55419921875 , -0.503540039062 
2018/05/17 17:46:09.861127 , -2.744140625 , 2.080078125 , 2.82421875 , 22.041025641 , 20.6915750916 , -83.2161172161 , -3.79180908203 , 5.55419921875 , -0.503540039062 
2018/05/17 17:46:10.153646 , -2.744140625 , 2.080078125 , 2.82421875 , 22.041025641 , 20.6915750916 , -83.2161172161 , -3.62396240234 , 5.08117675781 , 0.0381469726562 
2018/05/17 17:46:10.446171 , -2.5888671875 , 1.5537109375 , 2.560546875 , 22.4908424908 , 20.0918192918 , -83.9658119658 , -3.62396240234 , 5.08117675781 , 0.0381469726562 
2018/05/17 17:46:10.738701 , -2.5888671875 , 1.5537109375 , 2.560546875 , 22.4908424908 , 20.0918192918 , -83.9658119658 , -3.62396240234 , 5.08117675781 , 0.0381469726562 
2018/05/17 17:46:11.031233 , -2.5888671875 , 1.5537109375 , 2.560546875 , 22.4908424908 , 20.0918192918 , -83.9658119658 , -3.62396240234 , 5.08117675781 , 0.0381469726562 
2018/05/17 17:46:11.323737 , -2.6064453125 , 1.484375 , 2.64453125 , 23.0905982906 , 20.6915750916 , -82.1665445665 , -4.34875488281 , 4.18853759766 , -0.968933105469 
2018/05/17 17:46:11.616263 , -2.6064453125 , 1.484375 , 2.64453125 , 23.0905982906 , 20.6915750916 , -82.1665445665 , -4.34875488281 , 4.18853759766 , -0.968933105469 
2018/05/17 17:46:11.908773 , -2.6064453125 , 1.484375 , 2.64453125 , 23.0905982906 , 20.6915750916 , -82.1665445665 , -4.34875488281 , 4.18853759766 , -0.968933105469 
2018/05/17 17:46:12.201296 , -2.6064453125 , 1.484375 , 2.64453125 , 23.0905982906 , 20.6915750916 , -82.1665445665 , -2.83813476562 , 5.18035888672 , -2.27355957031 
2018/05/17 17:46:12.493837 , -2.361328125 , 1.5634765625 , 2.76953125 , 22.9406593407 , 22.3409035409 , -82.4664224664 , -2.83813476562 , 5.18035888672 , -2.27355957031 
2018/05/17 17:46:12.786360 , -2.361328125 , 1.5634765625 , 2.76953125 , 22.9406593407 , 22.3409035409 , -82.4664224664 , -2.83813476562 , 5.18035888672 , -2.27355957031 
2018/05/17 17:46:13.078895 , -2.361328125 , 1.5634765625 , 2.76953125 , 22.9406593407 , 22.3409035409 , -82.4664224664 , -2.83813476562 , 5.18035888672 , -2.27355957031 
2018/05/17 17:46:13.371386 , -2.4052734375 , 1.8408203125 , 2.7939453125 , 24.1401709402 , 21.1413919414 , -81.8666666667 , -5.91278076172 , 4.76837158203 , -1.08337402344 
2018/05/17 17:46:13.663903 , -2.4052734375 , 1.8408203125 , 2.7939453125 , 24.1401709402 , 21.1413919414 , -81.8666666667 , -5.91278076172 , 4.76837158203 , -1.08337402344 
2018/05/17 17:46:13.956419 , -2.4052734375 , 1.8408203125 , 2.7939453125 , 24.1401709402 , 21.1413919414 , -81.8666666667 , -5.91278076172 , 4.76837158203 , -1.08337402344 
2018/05/17 17:46:14.248967 , -2.4052734375 , 1.8408203125 , 2.7939453125 , 23.0905982906 , 20.0918192918 , -83.2161172161 , -7.29370117188 , 3.76129150391 , -1.41143798828 
2018/05/17 17:46:14.541473 , -2.4765625 , 1.8212890625 , 2.826171875 , 23.0905982906 , 20.0918192918 , -83.2161172161 , -7.29370117188 , 3.76129150391 , -1.41143798828 
2018/05/17 17:46:14.833984 , -2.4765625 , 1.8212890625 , 2.826171875 , 23.0905982906 , 20.0918192918 , -83.2161172161 , -7.29370117188 , 3.76129150391 , -1.41143798828 
2018/05/17 17:46:15.126507 , -2.4765625 , 1.8212890625 , 2.826171875 , 23.0905982906 , 20.0918192918 , -83.2161172161 , -4.07409667969 , 4.05120849609 , -0.389099121094 
2018/05/17 17:46:15.419018 , -2.6103515625 , 1.767578125 , 2.390625 , 25.0398046398 , 21.2913308913 , -80.967032967 , -4.07409667969 , 4.05120849609 , -0.389099121094 
2018/05/17 17:46:15.711528 , -2.6103515625 , 1.767578125 , 2.390625 , 25.0398046398 , 21.2913308913 , -80.967032967 , -4.07409667969 , 4.05120849609 , -0.389099121094 
2018/05/17 17:46:16.004049 , -2.6103515625 , 1.767578125 , 2.390625 , 25.0398046398 , 21.2913308913 , -80.967032967 , -4.07409667969 , 4.05120849609 , -0.389099121094 
2018/05/17 17:46:16.296564 , -2.6103515625 , 1.767578125 , 2.390625 , 25.7894993895 , 23.0905982906 , -84.1157509158 , -4.06646728516 , 3.99017333984 , -0.0228881835938 
2018/05/17 17:46:16.589108 , -2.6708984375 , 1.8505859375 , 2.6767578125 , 25.7894993895 , 23.0905982906 , -84.1157509158 , -4.06646728516 , 3.99017333984 , -0.0228881835938 
2018/05/17 17:46:16.881607 , -2.6708984375 , 1.8505859375 , 2.6767578125 , 25.7894993895 , 23.0905982906 , -84.1157509158 , -4.06646728516 , 3.99017333984 , -0.0228881835938 
2018/05/17 17:46:17.174120 , -2.6708984375 , 1.8505859375 , 2.6767578125 , 25.7894993895 , 23.0905982906 , -84.1157509158 , -5.23376464844 , 4.150390625 , -0.9765625 
2018/05/17 17:46:17.466852 , -2.5048828125 , 1.7900390625 , 2.6787109375 , 24.7399267399 , 20.2417582418 , -83.3660561661 , -5.23376464844 , 4.150390625 , -0.9765625 
2018/05/17 17:46:17.759338 , -2.5048828125 , 1.7900390625 , 2.6787109375 , 24.7399267399 , 20.2417582418 , -83.3660561661 , -5.23376464844 , 4.150390625 , -0.9765625 
2018/05/17 17:46:18.051688 , -2.5048828125 , 1.7900390625 , 2.6787109375 , 24.7399267399 , 20.2417582418 , -83.3660561661 , -5.23376464844 , 4.150390625 , -0.9765625 
2018/05/17 17:46:18.344272 , -2.5322265625 , 1.6162109375 , 2.5537109375 , 24.8898656899 , 19.642002442 , -82.9162393162 , -5.99670410156 , 5.23376464844 , 0.999450683594 
2018/05/17 17:46:18.636789 , -2.5322265625 , 1.6162109375 , 2.5537109375 , 24.8898656899 , 19.642002442 , -82.9162393162 , -5.99670410156 , 5.23376464844 , 0.999450683594 
2018/05/17 17:46:18.929371 , -2.5322265625 , 1.6162109375 , 2.5537109375 , 24.8898656899 , 19.642002442 , -82.9162393162 , -5.99670410156 , 5.23376464844 , 0.999450683594 
2018/05/17 17:46:19.221893 , -2.5322265625 , 1.6162109375 , 2.5537109375 , 25.0398046398 , 21.2913308913 , -81.7167277167 , -4.52423095703 , 3.90625 , -0.0534057617188 
2018/05/17 17:46:19.514461 , -2.6494140625 , 1.9140625 , 2.322265625 , 25.0398046398 , 21.2913308913 , -81.7167277167 , -4.52423095703 , 3.90625 , -0.0534057617188 
2018/05/17 17:46:19.807050 , -2.6494140625 , 1.9140625 , 2.322265625 , 25.0398046398 , 21.2913308913 , -81.7167277167 , -4.52423095703 , 3.90625 , -0.0534057617188 
2018/05/17 17:46:20.099570 , -2.6494140625 , 1.9140625 , 2.322265625 , 25.0398046398 , 21.2913308913 , -81.7167277167 , -4.52423095703 , 3.90625 , -0.0534057617188 
2018/05/17 17:46:20.392119 , -2.4990234375 , 1.6103515625 , 2.4541015625 , 27.2888888889 , 21.1413919414 , -81.8666666667 , -4.14276123047 , 3.33404541016 , -1.39617919922 
2018/05/17 17:46:20.684657 , -2.4990234375 , 1.6103515625 , 2.4541015625 , 27.2888888889 , 21.1413919414 , -81.8666666667 , -4.14276123047 , 3.33404541016 , -1.39617919922 
2018/05/17 17:46:20.977240 , -2.4990234375 , 1.6103515625 , 2.4541015625 , 27.2888888889 , 21.1413919414 , -81.8666666667 , -4.14276123047 , 3.33404541016 , -1.39617919922 
2018/05/17 17:46:21.269766 , -2.4990234375 , 1.6103515625 , 2.4541015625 , 26.989010989 , 20.3916971917 , -82.6163614164 , -5.63812255859 , 3.71551513672 , 0.442504882812 
2018/05/17 17:46:21.562340 , -2.58203125 , 1.4130859375 , 2.623046875 , 26.989010989 , 20.3916971917 , -82.6163614164 , -5.63812255859 , 3.71551513672 , 0.442504882812 
2018/05/17 17:46:21.854895 , -2.58203125 , 1.4130859375 , 2.623046875 , 26.989010989 , 20.3916971917 , -82.6163614164 , -5.63812255859 , 3.71551513672 , 0.442504882812 
2018/05/17 17:46:22.147436 , -2.58203125 , 1.4130859375 , 2.623046875 , 26.989010989 , 20.3916971917 , -82.6163614164 , -5.55419921875 , 4.37927246094 , -1.23596191406 
2018/05/17 17:46:22.440062 , -2.611328125 , 1.6484375 , 2.6142578125 , 25.9394383394 , 22.4908424908 , -81.2669108669 , -5.55419921875 , 4.37927246094 , -1.23596191406 
2018/05/17 17:46:22.732532 , -2.611328125 , 1.6484375 , 2.6142578125 , 25.9394383394 , 22.4908424908 , -81.2669108669 , -5.55419921875 , 4.37927246094 , -1.23596191406 
2018/05/17 17:46:23.025064 , -2.611328125 , 1.6484375 , 2.6142578125 , 25.9394383394 , 22.4908424908 , -81.2669108669 , -5.55419921875 , 4.37927246094 , -1.23596191406 
2018/05/17 17:46:23.317617 , -2.42578125 , 1.845703125 , 2.5361328125 , 25.7894993895 , 22.3409035409 , -80.967032967 , -5.126953125 , 3.82232666016 , -1.56402587891 
2018/05/17 17:46:23.610204 , -2.42578125 , 1.845703125 , 2.5361328125 , 25.7894993895 , 22.3409035409 , -80.967032967 , -5.126953125 , 3.82232666016 , -1.56402587891 
2018/05/17 17:46:23.902734 , -2.42578125 , 1.845703125 , 2.5361328125 , 25.7894993895 , 22.3409035409 , -80.967032967 , -5.126953125 , 3.82232666016 , -1.56402587891 
2018/05/17 17:46:24.195267 , -2.42578125 , 1.845703125 , 2.5361328125 , 25.7894993895 , 22.3409035409 , -80.967032967 , -3.47137451172 , 5.92803955078 , -0.434875488281 
2018/05/17 17:46:24.487812 , -2.623046875 , 1.7880859375 , 2.76953125 , 28.0385836386 , 21.7411477411 , -83.9658119658 , -3.47137451172 , 5.92803955078 , -0.434875488281 
2018/05/17 17:46:24.780464 , -2.623046875 , 1.7880859375 , 2.76953125 , 28.0385836386 , 21.7411477411 , -83.9658119658 , -3.47137451172 , 5.92803955078 , -0.434875488281 
2018/05/17 17:46:25.072947 , -2.623046875 , 1.7880859375 , 2.76953125 , 28.0385836386 , 21.7411477411 , -83.9658119658 , -3.47137451172 , 5.92803955078 , -0.434875488281 
2018/05/17 17:46:25.365461 , -2.46875 , 1.7236328125 , 2.6240234375 , 26.6891330891 , 21.4412698413 , -80.2173382173 , -3.13568115234 , 5.71441650391 , -1.12152099609 
2018/05/17 17:46:25.658010 , -2.46875 , 1.7236328125 , 2.6240234375 , 26.6891330891 , 21.4412698413 , -80.2173382173 , -3.13568115234 , 5.71441650391 , -1.12152099609 
2018/05/17 17:46:25.950562 , -2.46875 , 1.7236328125 , 2.6240234375 , 26.6891330891 , 21.4412698413 , -80.2173382173 , -3.13568115234 , 5.71441650391 , -1.12152099609 
2018/05/17 17:46:26.243140 , -2.46875 , 1.7236328125 , 2.6240234375 , 26.6891330891 , 21.4412698413 , -80.2173382173 , -3.0517578125 , 4.90570068359 , -1.25885009766 
2018/05/17 17:46:26.535634 , -2.455078125 , 1.740234375 , 2.6806640625 , 26.6891330891 , 21.4412698413 , -80.2173382173 , -3.0517578125 , 4.90570068359 , -1.25885009766 
2018/05/17 17:46:26.828210 , -2.455078125 , 1.740234375 , 2.6806640625 , 26.6891330891 , 21.4412698413 , -80.2173382173 , -3.0517578125 , 4.90570068359 , -1.25885009766 
2018/05/17 17:46:27.120739 , -2.455078125 , 1.740234375 , 2.6806640625 , 26.6891330891 , 21.4412698413 , -80.2173382173 , -3.0517578125 , 4.90570068359 , -1.25885009766 
2018/05/17 17:46:27.413279 , -2.8193359375 , 1.6748046875 , 2.671875 , 26.6891330891 , 21.4412698413 , -80.2173382173 , -3.53240966797 , 3.31115722656 , -0.0381469726562 
2018/05/17 17:46:27.705853 , -2.8193359375 , 1.6748046875 , 2.671875 , 26.6891330891 , 21.4412698413 , -80.2173382173 , -3.53240966797 , 3.31115722656 , -0.0381469726562 
2018/05/17 17:46:27.998393 , -2.8193359375 , 1.6748046875 , 2.671875 , 26.6891330891 , 21.4412698413 , -80.2173382173 , -3.53240966797 , 3.31115722656 , -0.0381469726562 
2018/05/17 17:46:28.290934 , -2.8193359375 , 1.6748046875 , 2.671875 , 26.6891330891 , 21.4412698413 , -80.2173382173 , -3.75366210938 , 2.88391113281 , -1.33514404297 
2018/05/17 17:46:28.583465 , -2.453125 , 1.6201171875 , 3.1015625 , 26.6891330891 , 21.4412698413 , -80.2173382173 , -3.75366210938 , 2.88391113281 , -1.33514404297 
2018/05/17 17:46:28.876002 , -2.453125 , 1.6201171875 , 3.1015625 , 26.6891330891 , 21.4412698413 , -80.2173382173 , -3.75366210938 , 2.88391113281 , -1.33514404297 
2018/05/17 17:46:29.168546 , -2.453125 , 1.6201171875 , 3.1015625 , 26.6891330891 , 21.4412698413 , -80.2173382173 , -3.73077392578 , 4.28771972656 , -0.541687011719 
2018/05/17 17:46:29.461072 , -2.5966796875 , 1.6953125 , 2.7578125 , 26.6891330891 , 21.4412698413 , -80.2173382173 , -3.73077392578 , 4.28771972656 , -0.541687011719 
2018/05/17 17:46:29.753641 , -2.5966796875 , 1.6953125 , 2.7578125 , 26.6891330891 , 21.4412698413 , -80.2173382173 , -3.73077392578 , 4.28771972656 , -0.541687011719 
2018/05/17 17:46:30.046160 , -2.5966796875 , 1.6953125 , 2.7578125 , 26.6891330891 , 21.4412698413 , -80.2173382173 , -3.73077392578 , 4.28771972656 , -0.541687011719 
2018/05/17 17:46:30.338700 , -2.6884765625 , 1.88671875 , 2.5419921875 , 26.6891330891 , 21.4412698413 , -80.2173382173 , -4.74548339844 , 4.37927246094 , -1.39617919922 
2018/05/17 17:46:30.631237 , -2.6884765625 , 1.88671875 , 2.5419921875 , 26.6891330891 , 21.4412698413 , -80.2173382173 , -4.74548339844 , 4.37927246094 , -1.39617919922 
2018/05/17 17:46:30.923785 , -2.6884765625 , 1.88671875 , 2.5419921875 , 26.6891330891 , 21.4412698413 , -80.2173382173 , -4.74548339844 , 4.37927246094 , -1.39617919922 
2018/05/17 17:46:31.216327 , -2.6884765625 , 1.88671875 , 2.5419921875 , 26.6891330891 , 21.4412698413 , -80.2173382173 , -4.85229492188 , 4.79125976562 , -0.00762939453125 
2018/05/17 17:46:31.508881 , -2.7568359375 , 1.607421875 , 2.51953125 , 26.6891330891 , 21.4412698413 , -80.2173382173 , -4.85229492188 , 4.79125976562 , -0.00762939453125 
2018/05/17 17:46:31.801424 , -2.7568359375 , 1.607421875 , 2.51953125 , 26.6891330891 , 21.4412698413 , -80.2173382173 , -4.85229492188 , 4.79125976562 , -0.00762939453125 
2018/05/17 17:46:32.093951 , -2.7568359375 , 1.607421875 , 2.51953125 , 26.6891330891 , 21.4412698413 , -80.2173382173 , -4.85229492188 , 4.79125976562 , -0.00762939453125 
2018/05/17 17:46:32.386496 , -2.3544921875 , 1.73828125 , 2.4423828125 , 26.6891330891 , 21.4412698413 , -80.2173382173 , -3.89862060547 , 3.97491455078 , 0.633239746094 
2018/05/17 17:46:32.679014 , -2.3544921875 , 1.73828125 , 2.4423828125 , 26.6891330891 , 21.4412698413 , -80.2173382173 , -3.89862060547 , 3.97491455078 , 0.633239746094 
2018/05/17 17:46:32.971582 , -2.3544921875 , 1.73828125 , 2.4423828125 , 26.6891330891 , 21.4412698413 , -80.2173382173 , -3.89862060547 , 3.97491455078 , 0.633239746094 
2018/05/17 17:46:33.264102 , -2.3544921875 , 1.73828125 , 2.4423828125 , 26.6891330891 , 21.4412698413 , -80.2173382173 , -3.92913818359 , 3.95965576172 , -1.65557861328 
2018/05/17 17:46:33.556629 , -2.0859375 , 1.8623046875 , 2.5634765625 , 26.6891330891 , 21.4412698413 , -80.2173382173 , -3.92913818359 , 3.95965576172 , -1.65557861328 
2018/05/17 17:46:33.849194 , -2.0859375 , 1.8623046875 , 2.5634765625 , 26.6891330891 , 21.4412698413 , -80.2173382173 , -3.92913818359 , 3.95965576172 , -1.65557861328 
2018/05/17 17:46:34.141713 , -2.0859375 , 1.8623046875 , 2.5634765625 , 26.6891330891 , 21.4412698413 , -80.2173382173 , -5.74493408203 , -4.99725341797 , 6.87408447266 
2018/05/17 17:46:34.434251 , -2.73828125 , 1.9130859375 , 2.7646484375 , 26.6891330891 , 21.4412698413 , -80.2173382173 , -5.74493408203 , -4.99725341797 , 6.87408447266 
2018/05/17 17:46:34.726777 , -2.73828125 , 1.9130859375 , 2.7646484375 , 26.6891330891 , 21.4412698413 , -80.2173382173 , -5.74493408203 , -4.99725341797 , 6.87408447266 
2018/05/17 17:46:35.019335 , -2.73828125 , 1.9130859375 , 2.7646484375 , 26.6891330891 , 21.4412698413 , -80.2173382173 , -5.74493408203 , -4.99725341797 , 6.87408447266 
2018/05/17 17:46:35.311896 , -2.73828125 , 1.9130859375 , 2.7646484375 , 26.6891330891 , 21.4412698413 , -80.2173382173 , -104.652404785 , 54.3518066406 , 64.2929077148 
2018/05/17 17:46:35.604394 , -2.3837890625 , 2.3193359375 , 1.259765625 , 26.6891330891 , 21.4412698413 , -80.2173382173 , -104.652404785 , 54.3518066406 , 64.2929077148 
2018/05/17 17:46:35.896929 , -2.3837890625 , 2.3193359375 , 1.259765625 , 26.6891330891 , 21.4412698413 , -80.2173382173 , -104.652404785 , 54.3518066406 , 64.2929077148 
2018/05/17 17:46:36.189455 , -2.3837890625 , 2.3193359375 , 1.259765625 , 26.6891330891 , 21.4412698413 , -80.2173382173 , -18.310546875 , 34.0423583984 , -3.68499755859 
2018/05/17 17:46:36.481994 , -3.873046875 , 2.7197265625 , 5.576171875 , 26.6891330891 , 21.4412698413 , -80.2173382173 , -18.310546875 , 34.0423583984 , -3.68499755859 
2018/05/17 17:46:36.774530 , -3.873046875 , 2.7197265625 , 5.576171875 , 26.6891330891 , 21.4412698413 , -80.2173382173 , -18.310546875 , 34.0423583984 , -3.68499755859 
2018/05/17 17:46:37.067063 , -3.873046875 , 2.7197265625 , 5.576171875 , 26.6891330891 , 21.4412698413 , -80.2173382173 , -18.310546875 , 34.0423583984 , -3.68499755859 
2018/05/17 17:46:37.359601 , -1.88671875 , 1.91015625 , 2.7763671875 , 26.6891330891 , 21.4412698413 , -80.2173382173 , -7.22503662109 , 12.4969482422 , -1.19781494141 
2018/05/17 17:46:37.652157 , -1.88671875 , 1.91015625 , 2.7763671875 , 26.6891330891 , 21.4412698413 , -80.2173382173 , -7.22503662109 , 12.4969482422 , -1.19781494141 
2018/05/17 17:46:37.944662 , -1.88671875 , 1.91015625 , 2.7763671875 , 26.6891330891 , 21.4412698413 , -80.2173382173 , -7.22503662109 , 12.4969482422 , -1.19781494141 
2018/05/17 17:46:38.237201 , -1.88671875 , 1.91015625 , 2.7763671875 , 26.6891330891 , 21.4412698413 , -80.2173382173 , 58.3343505859 , -39.306640625 , -30.8837890625 
2018/05/17 17:46:38.529730 , -2.96484375 , 1.583984375 , 2.068359375 , 26.6891330891 , 21.4412698413 , -80.2173382173 , 58.3343505859 , -39.306640625 , -30.8837890625 
2018/05/17 17:46:38.822256 , -2.96484375 , 1.583984375 , 2.068359375 , 26.6891330891 , 21.4412698413 , -80.2173382173 , 58.3343505859 , -39.306640625 , -30.8837890625 
2018/05/17 17:46:39.114808 , -2.96484375 , 1.583984375 , 2.068359375 , 26.6891330891 , 21.4412698413 , -80.2173382173 , 58.3343505859 , -39.306640625 , -30.8837890625 
2018/05/17 17:46:39.407332 , -2.193359375 , 2.74609375 , 2.552734375 , 26.6891330891 , 21.4412698413 , -80.2173382173 , -61.2487792969 , 14.1143798828 , 17.5018310547 
2018/05/17 17:46:39.699864 , -2.193359375 , 2.74609375 , 2.552734375 , 26.6891330891 , 21.4412698413 , -80.2173382173 , -61.2487792969 , 14.1143798828 , 17.5018310547 
2018/05/17 17:46:39.992392 , -2.193359375 , 2.74609375 , 2.552734375 , 26.6891330891 , 21.4412698413 , -80.2173382173 , -61.2487792969 , 14.1143798828 , 17.5018310547 
2018/05/17 17:46:40.284973 , -2.193359375 , 2.74609375 , 2.552734375 , 26.6891330891 , 21.4412698413 , -80.2173382173 , -47.1496582031 , 211.608886719 , 47.9736328125 
2018/05/17 17:46:40.577479 , -4.0810546875 , 0.9501953125 , 3.72265625 , 26.6891330891 , 21.4412698413 , -80.2173382173 , -47.1496582031 , 211.608886719 , 47.9736328125 
2018/05/17 17:46:40.869997 , -4.0810546875 , 0.9501953125 , 3.72265625 , 26.6891330891 , 21.4412698413 , -80.2173382173 , -47.1496582031 , 211.608886719 , 47.9736328125 
2018/05/17 17:46:41.162526 , -4.0810546875 , 0.9501953125 , 3.72265625 , 26.6891330891 , 21.4412698413 , -80.2173382173 , -7.19451904297 , 3.48663330078 , 28.8925170898 
2018/05/17 17:46:41.455063 , -2.255859375 , 0.7919921875 , 2.587890625 , 26.6891330891 , 21.4412698413 , -80.2173382173 , -7.19451904297 , 3.48663330078 , 28.8925170898 
2018/05/17 17:46:41.747588 , -2.255859375 , 0.7919921875 , 2.587890625 , 26.6891330891 , 21.4412698413 , -80.2173382173 , -7.19451904297 , 3.48663330078 , 28.8925170898 
2018/05/17 17:46:42.040261 , -2.255859375 , 0.7919921875 , 2.587890625 , 26.6891330891 , 21.4412698413 , -80.2173382173 , -7.19451904297 , 3.48663330078 , 28.8925170898 
2018/05/17 17:46:42.332678 , -2.166015625 , 0.8671875 , 1.5966796875 , 26.6891330891 , 21.4412698413 , -80.2173382173 , 39.0014648438 , -21.0876464844 , -42.4728393555 
2018/05/17 17:46:42.625211 , -2.166015625 , 0.8671875 , 1.5966796875 , 26.6891330891 , 21.4412698413 , -80.2173382173 , 39.0014648438 , -21.0876464844 , -42.4728393555 
2018/05/17 17:46:42.917722 , -2.166015625 , 0.8671875 , 1.5966796875 , 26.6891330891 , 21.4412698413 , -80.2173382173 , 39.0014648438 , -21.0876464844 , -42.4728393555 
2018/05/17 17:46:43.210249 , -2.166015625 , 0.8671875 , 1.5966796875 , 26.6891330891 , 21.4412698413 , -80.2173382173 , -34.3246459961 , 6.64520263672 , -28.2821655273 
2018/05/17 17:46:43.502807 , -4.10546875 , 2.6796875 , 4.3408203125 , 26.6891330891 , 21.4412698413 , -80.2173382173 , -34.3246459961 , 6.64520263672 , -28.2821655273 
2018/05/17 17:46:43.795314 , -4.10546875 , 2.6796875 , 4.3408203125 , 26.6891330891 , 21.4412698413 , -80.2173382173 , -34.3246459961 , 6.64520263672 , -28.2821655273 
2018/05/17 17:46:44.087833 , -4.10546875 , 2.6796875 , 4.3408203125 , 26.6891330891 , 21.4412698413 , -80.2173382173 , -34.3246459961 , 6.64520263672 , -28.2821655273 
2018/05/17 17:46:44.380363 , -2.759765625 , 2.9482421875 , 3.4296875 , 26.6891330891 , 21.4412698413 , -80.2173382173 , -32.356262207 , 15.1901245117 , -6.9580078125 
2018/05/17 17:46:44.672930 , -2.759765625 , 2.9482421875 , 3.4296875 , 26.6891330891 , 21.4412698413 , -80.2173382173 , -32.356262207 , 15.1901245117 , -6.9580078125 
2018/05/17 17:46:44.965495 , -2.759765625 , 2.9482421875 , 3.4296875 , 26.6891330891 , 21.4412698413 , -80.2173382173 , -32.356262207 , 15.1901245117 , -6.9580078125 
2018/05/17 17:46:45.257948 , -2.759765625 , 2.9482421875 , 3.4296875 , 42.5826617827 , 21.2913308913 , -97.0105006105 , -8.14056396484 , 20.6069946289 , 43.0603027344 
2018/05/17 17:46:45.550480 , -2.4501953125 , 1.3466796875 , 3.0078125 , 42.5826617827 , 21.2913308913 , -97.0105006105 , -8.14056396484 , 20.6069946289 , 43.0603027344 
2018/05/17 17:46:45.843053 , -2.4501953125 , 1.3466796875 , 3.0078125 , 42.5826617827 , 21.2913308913 , -97.0105006105 , -8.14056396484 , 20.6069946289 , 43.0603027344 
2018/05/17 17:46:46.135536 , -2.4501953125 , 1.3466796875 , 3.0078125 , 42.5826617827 , 21.2913308913 , -97.0105006105 , -40.4891967773 , 57.861328125 , 60.5850219727 
2018/05/17 17:46:46.428077 , -2.6376953125 , 0.576171875 , 2.5947265625 , 15.1438339438 , 10.3457875458 , -92.2124542125 , -40.4891967773 , 57.861328125 , 60.5850219727 
2018/05/17 17:46:46.720585 , -2.6376953125 , 0.576171875 , 2.5947265625 , 15.1438339438 , 10.3457875458 , -92.2124542125 , -40.4891967773 , 57.861328125 , 60.5850219727 
2018/05/17 17:46:47.013157 , -2.6376953125 , 0.576171875 , 2.5947265625 , 15.1438339438 , 10.3457875458 , -92.2124542125 , -40.4891967773 , 57.861328125 , 60.5850219727 
2018/05/17 17:46:47.306631 , -2.4443359375 , 2.2236328125 , 2.44140625 , 28.9382173382 , 24.7399267399 , -96.4107448107 , -56.396484375 , 84.9685668945 , 25.6195068359 
2018/05/17 17:46:47.646927 , -2.4443359375 , 2.2236328125 , 2.44140625 , 28.9382173382 , 24.7399267399 , -96.4107448107 , -56.396484375 , 84.9685668945 , 25.6195068359 
2018/05/17 17:46:47.939452 , -2.4443359375 , 2.2236328125 , 2.44140625 , 28.9382173382 , 24.7399267399 , -96.4107448107 , -56.396484375 , 84.9685668945 , 25.6195068359 
2018/05/17 17:46:48.280727 , -2.4443359375 , 2.2236328125 , 2.44140625 , 41.9829059829 , 24.1401709402 , -93.262026862 , -17.0593261719 , 23.4527587891 , 28.6102294922 
2018/05/17 17:46:48.573302 , -2.953125 , 1.6328125 , 2.51953125 , 41.9829059829 , 24.1401709402 , -93.262026862 , -17.0593261719 , 23.4527587891 , 28.6102294922 
2018/05/17 17:46:48.865789 , -2.953125 , 1.6328125 , 2.51953125 , 41.9829059829 , 24.1401709402 , -93.262026862 , -17.0593261719 , 23.4527587891 , 28.6102294922 
2018/05/17 17:46:49.158311 , -2.953125 , 1.6328125 , 2.51953125 , 41.9829059829 , 24.1401709402 , -93.262026862 , -7.53021240234 , 155.014038086 , 35.9115600586 
2018/05/17 17:46:49.450833 , -3.1728515625 , 3.265625 , 3.3134765625 , 39.4339438339 , 25.7894993895 , -95.9609279609 , -7.53021240234 , 155.014038086 , 35.9115600586 
2018/05/17 17:46:49.743369 , -3.1728515625 , 3.265625 , 3.3134765625 , 39.4339438339 , 25.7894993895 , -95.9609279609 , -7.53021240234 , 155.014038086 , 35.9115600586 
2018/05/17 17:46:50.035904 , -3.1728515625 , 3.265625 , 3.3134765625 , 39.4339438339 , 25.7894993895 , -95.9609279609 , -7.53021240234 , 155.014038086 , 35.9115600586 
2018/05/17 17:46:50.328407 , -1.8369140625 , 1.0869140625 , 3.07421875 , 37.6346764347 , 32.8366300366 , -95.9609279609 , 42.0150756836 , 44.2123413086 , -34.9960327148 
2018/05/17 17:46:50.620938 , -1.8369140625 , 1.0869140625 , 3.07421875 , 37.6346764347 , 32.8366300366 , -95.9609279609 , 42.0150756836 , 44.2123413086 , -34.9960327148 
2018/05/17 17:46:50.913479 , -1.8369140625 , 1.0869140625 , 3.07421875 , 37.6346764347 , 32.8366300366 , -95.9609279609 , 42.0150756836 , 44.2123413086 , -34.9960327148 
2018/05/17 17:46:51.205985 , -1.8369140625 , 1.0869140625 , 3.07421875 , 37.6346764347 , 32.8366300366 , -95.9609279609 , 93.8186645508 , -21.0342407227 , -50.4608154297 
2018/05/17 17:46:51.498515 , -1.146484375 , 1.6015625 , 1.1748046875 , 44.231990232 , 34.485958486 , -85.3152625153 , 93.8186645508 , -21.0342407227 , -50.4608154297 
2018/05/17 17:46:51.791031 , -1.146484375 , 1.6015625 , 1.1748046875 , 44.231990232 , 34.485958486 , -85.3152625153 , 93.8186645508 , -21.0342407227 , -50.4608154297 
2018/05/17 17:46:52.083573 , -1.146484375 , 1.6015625 , 1.1748046875 , 44.231990232 , 34.485958486 , -85.3152625153 , 93.8186645508 , -21.0342407227 , -50.4608154297 
2018/05/17 17:46:52.376084 , -3.671875 , 0.9638671875 , 2.0966796875 , 25.3396825397 , 22.3409035409 , -98.8097680098 , 21.8734741211 , -34.7671508789 , -23.8647460938 
2018/05/17 17:46:52.668639 , -3.671875 , 0.9638671875 , 2.0966796875 , 25.3396825397 , 22.3409035409 , -98.8097680098 , 21.8734741211 , -34.7671508789 , -23.8647460938 
2018/05/17 17:46:52.961146 , -3.671875 , 0.9638671875 , 2.0966796875 , 25.3396825397 , 22.3409035409 , -98.8097680098 , 21.8734741211 , -34.7671508789 , -23.8647460938 
2018/05/17 17:46:53.253680 , -3.671875 , 0.9638671875 , 2.0966796875 , 23.9902319902 , 19.7919413919 , -100.758974359 , -28.5873413086 , 60.920715332 , -69.1223144531 
2018/05/17 17:46:53.546182 , -3.2802734375 , 2.5517578125 , 1.404296875 , 23.9902319902 , 19.7919413919 , -100.758974359 , -28.5873413086 , 60.920715332 , -69.1223144531 
2018/05/17 17:46:53.838705 , -3.2802734375 , 2.5517578125 , 1.404296875 , 23.9902319902 , 19.7919413919 , -100.758974359 , -28.5873413086 , 60.920715332 , -69.1223144531 
2018/05/17 17:46:54.131228 , -3.2802734375 , 2.5517578125 , 1.404296875 , 23.9902319902 , 19.7919413919 , -100.758974359 , -16.1285400391 , 14.778137207 , -24.1546630859 
2018/05/17 17:46:54.423754 , -3.3701171875 , 1.986328125 , 4.5048828125 , 17.093040293 , 16.4932844933 , -106.756532357 , -16.1285400391 , 14.778137207 , -24.1546630859 
2018/05/17 17:46:54.716289 , -3.3701171875 , 1.986328125 , 4.5048828125 , 17.093040293 , 16.4932844933 , -106.756532357 , -16.1285400391 , 14.778137207 , -24.1546630859 
2018/05/17 17:46:55.008804 , -3.3701171875 , 1.986328125 , 4.5048828125 , 17.093040293 , 16.4932844933 , -106.756532357 , -16.1285400391 , 14.778137207 , -24.1546630859 
2018/05/17 17:46:55.301250 , -3.3701171875 , 1.986328125 , 4.5048828125 , 11.6952380952 , 15.5936507937 , -121.9003663 , 3.70025634766 , 13.8854980469 , -4.41741943359 
2018/05/17 17:46:55.593883 , -2.4921875 , 1.3251953125 , 2.3994140625 , 11.6952380952 , 15.5936507937 , -121.9003663 , 3.70025634766 , 13.8854980469 , -4.41741943359 
2018/05/17 17:46:55.886380 , -2.4921875 , 1.3251953125 , 2.3994140625 , 11.6952380952 , 15.5936507937 , -121.9003663 , 3.70025634766 , 13.8854980469 , -4.41741943359 
2018/05/17 17:46:56.178895 , -2.4921875 , 1.3251953125 , 2.3994140625 , 11.6952380952 , 15.5936507937 , -121.9003663 , 6.46209716797 , 11.1389160156 , 14.0075683594 
2018/05/17 17:46:56.471424 , -2.1044921875 , 1.69921875 , 2.5078125 , 18.7423687424 , 13.4945054945 , -125.049084249 , 6.46209716797 , 11.1389160156 , 14.0075683594 
2018/05/17 17:46:56.812715 , -2.1044921875 , 1.69921875 , 2.5078125 , 18.7423687424 , 13.4945054945 , -125.049084249 , 6.46209716797 , 11.1389160156 , 14.0075683594 
2018/05/17 17:46:57.153980 , -2.1044921875 , 1.69921875 , 2.5078125 , 18.7423687424 , 13.4945054945 , -125.049084249 , -45.41015625 , 24.3988037109 , -21.1944580078 
2018/05/17 17:46:57.446481 , -3.5185546875 , 2.8583984375 , 1.9951171875 , 16.4932844933 , 13.0446886447 , -105.107203907 , -45.41015625 , 24.3988037109 , -21.1944580078 
2018/05/17 17:46:57.738999 , -3.5185546875 , 2.8583984375 , 1.9951171875 , 16.4932844933 , 13.0446886447 , -105.107203907 , -45.41015625 , 24.3988037109 , -21.1944580078 
2018/05/17 17:46:58.031530 , -3.5185546875 , 2.8583984375 , 1.9951171875 , 16.4932844933 , 13.0446886447 , -105.107203907 , -45.41015625 , 24.3988037109 , -21.1944580078 
2018/05/17 17:46:58.324057 , -3.1015625 , 1.724609375 , 2.232421875 , 2.39902319902 , 14.0942612943 , -133.745543346 , 37.2314453125 , 5.70678710938 , -22.4761962891 
2018/05/17 17:46:58.616587 , -3.1015625 , 1.724609375 , 2.232421875 , 2.39902319902 , 14.0942612943 , -133.745543346 , 37.2314453125 , 5.70678710938 , -22.4761962891 
2018/05/17 17:46:58.909122 , -3.1015625 , 1.724609375 , 2.232421875 , 2.39902319902 , 14.0942612943 , -133.745543346 , 37.2314453125 , 5.70678710938 , -22.4761962891 
2018/05/17 17:46:59.250396 , -3.1015625 , 1.724609375 , 2.232421875 , 13.3445665446 , 28.4884004884 , -138.093772894 , 12.1688842773 , 14.7323608398 , -18.7530517578 
2018/05/17 17:46:59.542972 , -2.2802734375 , 2.15625 , 2.9443359375 , 13.3445665446 , 28.4884004884 , -138.093772894 , 12.1688842773 , 14.7323608398 , -18.7530517578 
2018/05/17 17:46:59.835415 , -2.2802734375 , 2.15625 , 2.9443359375 , 13.3445665446 , 28.4884004884 , -138.093772894 , 12.1688842773 , 14.7323608398 , -18.7530517578 
2018/05/17 17:47:00.127947 , -2.2802734375 , 2.15625 , 2.9443359375 , 13.3445665446 , 28.4884004884 , -138.093772894 , 4.05120849609 , 1.60217285156 , -7.46154785156 
2018/05/17 17:47:00.420462 , -2.412109375 , 1.9638671875 , 2.2392578125 , 16.9431013431 , 34.336019536 , -125.049084249 , 4.05120849609 , 1.60217285156 , -7.46154785156 
2018/05/17 17:47:00.713011 , -2.412109375 , 1.9638671875 , 2.2392578125 , 16.9431013431 , 34.336019536 , -125.049084249 , 4.05120849609 , 1.60217285156 , -7.46154785156 
2018/05/17 17:47:01.005501 , -2.412109375 , 1.9638671875 , 2.2392578125 , 16.9431013431 , 34.336019536 , -125.049084249 , 4.05120849609 , 1.60217285156 , -7.46154785156 
2018/05/17 17:47:01.298008 , -2.412109375 , 1.9638671875 , 2.2392578125 , 22.190964591 , 37.4847374847 , -121.9003663 , -2.96020507812 , 3.72314453125 , -1.5869140625 
2018/05/17 17:47:01.590564 , -2.4775390625 , 2.009765625 , 2.3671875 , 22.190964591 , 37.4847374847 , -121.9003663 , -2.96020507812 , 3.72314453125 , -1.5869140625 
2018/05/17 17:47:01.883108 , -2.4775390625 , 2.009765625 , 2.3671875 , 22.190964591 , 37.4847374847 , -121.9003663 , -2.96020507812 , 3.72314453125 , -1.5869140625 
2018/05/17 17:47:02.175588 , -2.4775390625 , 2.009765625 , 2.3671875 , 22.190964591 , 37.4847374847 , -121.9003663 , -4.66918945312 , 5.70678710938 , -1.36566162109 
2018/05/17 17:47:02.468109 , -2.25390625 , 1.7392578125 , 2.619140625 , 22.041025641 , 36.5851037851 , -120.700854701 , -4.66918945312 , 5.70678710938 , -1.36566162109 
2018/05/17 17:47:02.760643 , -2.25390625 , 1.7392578125 , 2.619140625 , 22.041025641 , 36.5851037851 , -120.700854701 , -4.66918945312 , 5.70678710938 , -1.36566162109 
2018/05/17 17:47:03.053203 , -2.25390625 , 1.7392578125 , 2.619140625 , 22.041025641 , 36.5851037851 , -120.700854701 , -4.66918945312 , 5.70678710938 , -1.36566162109 
2018/05/17 17:47:03.345668 , -2.4990234375 , 1.9208984375 , 2.5458984375 , 22.7907203907 , 38.3843711844 , -123.84957265 , -5.27954101562 , 5.90515136719 , -0.442504882812 
2018/05/17 17:47:03.638360 , -2.4990234375 , 1.9208984375 , 2.5458984375 , 22.7907203907 , 38.3843711844 , -123.84957265 , -5.27954101562 , 5.90515136719 , -0.442504882812 
2018/05/17 17:47:03.930708 , -2.4990234375 , 1.9208984375 , 2.5458984375 , 22.7907203907 , 38.3843711844 , -123.84957265 , -5.27954101562 , 5.90515136719 , -0.442504882812 
2018/05/17 17:47:04.223263 , -2.4990234375 , 1.9208984375 , 2.5458984375 , 20.2417582418 , 35.8354090354 , -121.75042735 , -4.69207763672 , 3.06701660156 , 0.816345214844 
2018/05/17 17:47:04.515738 , -2.513671875 , 1.77734375 , 2.4501953125 , 20.2417582418 , 35.8354090354 , -121.75042735 , -4.69207763672 , 3.06701660156 , 0.816345214844 
2018/05/17 17:47:04.808246 , -2.513671875 , 1.77734375 , 2.4501953125 , 20.2417582418 , 35.8354090354 , -121.75042735 , -4.69207763672 , 3.06701660156 , 0.816345214844 
2018/05/17 17:47:05.100800 , -2.513671875 , 1.77734375 , 2.4501953125 , 20.2417582418 , 35.8354090354 , -121.75042735 , -4.69207763672 , 3.06701660156 , 0.816345214844 
2018/05/17 17:47:05.393294 , -2.5869140625 , 1.59375 , 2.7880859375 , 23.2405372405 , 38.2344322344 , -123.6996337 , -5.93566894531 , 5.55419921875 , -0.8544921875 
2018/05/17 17:47:05.685805 , -2.5869140625 , 1.59375 , 2.7880859375 , 23.2405372405 , 38.2344322344 , -123.6996337 , -5.93566894531 , 5.55419921875 , -0.8544921875 
2018/05/17 17:47:05.978327 , -2.5869140625 , 1.59375 , 2.7880859375 , 23.2405372405 , 38.2344322344 , -123.6996337 , -5.93566894531 , 5.55419921875 , -0.8544921875 
2018/05/17 17:47:06.270852 , -2.5869140625 , 1.59375 , 2.7880859375 , 23.0905982906 , 37.3347985348 , -119.651282051 , -3.42559814453 , 4.94384765625 , -0.877380371094 
2018/05/17 17:47:06.563369 , -2.6787109375 , 1.6025390625 , 2.5302734375 , 23.0905982906 , 37.3347985348 , -119.651282051 , -3.42559814453 , 4.94384765625 , -0.877380371094 
2018/05/17 17:47:06.855878 , -2.6787109375 , 1.6025390625 , 2.5302734375 , 23.0905982906 , 37.3347985348 , -119.651282051 , -3.42559814453 , 4.94384765625 , -0.877380371094 
2018/05/17 17:47:07.148417 , -2.6787109375 , 1.6025390625 , 2.5302734375 , 23.0905982906 , 37.3347985348 , -119.651282051 , -4.44793701172 , 3.74603271484 , 0.709533691406 
2018/05/17 17:47:07.440924 , -2.5712890625 , 1.634765625 , 2.2880859375 , 23.0905982906 , 37.3347985348 , -119.651282051 , -4.44793701172 , 3.74603271484 , 0.709533691406 
2018/05/17 17:47:07.733445 , -2.5712890625 , 1.634765625 , 2.2880859375 , 23.0905982906 , 37.3347985348 , -119.651282051 , -4.44793701172 , 3.74603271484 , 0.709533691406 
2018/05/17 17:47:08.074715 , -2.5712890625 , 1.634765625 , 2.2880859375 , 23.0905982906 , 37.3347985348 , -119.651282051 , -4.44793701172 , 3.74603271484 , 0.709533691406 
2018/05/17 17:47:08.367229 , -2.7021484375 , 1.59375 , 2.572265625 , 23.0905982906 , 37.3347985348 , -119.651282051 , -5.78308105469 , 5.27191162109 , -0.762939453125 
2018/05/17 17:47:08.659761 , -2.7021484375 , 1.59375 , 2.572265625 , 23.0905982906 , 37.3347985348 , -119.651282051 , -5.78308105469 , 5.27191162109 , -0.762939453125 
2018/05/17 17:47:08.952267 , -2.7021484375 , 1.59375 , 2.572265625 , 23.0905982906 , 37.3347985348 , -119.651282051 , -5.78308105469 , 5.27191162109 , -0.762939453125 
2018/05/17 17:47:09.244795 , -2.7021484375 , 1.59375 , 2.572265625 , 23.0905982906 , 37.3347985348 , -119.651282051 , -1.18255615234 , 5.64575195312 , -5.11932373047 
2018/05/17 17:47:09.537299 , -2.7412109375 , 1.7978515625 , 2.5732421875 , 23.0905982906 , 37.3347985348 , -119.651282051 , -1.18255615234 , 5.64575195312 , -5.11932373047 
2018/05/17 17:47:09.829841 , -2.7412109375 , 1.7978515625 , 2.5732421875 , 23.0905982906 , 37.3347985348 , -119.651282051 , -1.18255615234 , 5.64575195312 , -5.11932373047 
2018/05/17 17:47:10.122352 , -2.7412109375 , 1.7978515625 , 2.5732421875 , 23.0905982906 , 37.3347985348 , -119.651282051 , -1.18255615234 , 5.64575195312 , -5.11932373047 
2018/05/17 17:47:10.414874 , -3.2060546875 , 0.9775390625 , 2.7021484375 , 23.0905982906 , 37.3347985348 , -119.651282051 , -21.6598510742 , 0.0152587890625 , 19.5083618164 
2018/05/17 17:47:10.707506 , -3.2060546875 , 0.9775390625 , 2.7021484375 , 23.0905982906 , 37.3347985348 , -119.651282051 , -21.6598510742 , 0.0152587890625 , 19.5083618164 
2018/05/17 17:47:10.999888 , -3.2060546875 , 0.9775390625 , 2.7021484375 , 23.0905982906 , 37.3347985348 , -119.651282051 , -21.6598510742 , 0.0152587890625 , 19.5083618164 
2018/05/17 17:47:11.292397 , -3.2060546875 , 0.9775390625 , 2.7021484375 , 23.0905982906 , 37.3347985348 , -119.651282051 , -16.7236328125 , 66.1773681641 , 28.9459228516 
2018/05/17 17:47:11.584924 , -3.298828125 , 1.9931640625 , 3.2001953125 , 23.0905982906 , 37.3347985348 , -119.651282051 , -16.7236328125 , 66.1773681641 , 28.9459228516 
2018/05/17 17:47:11.926189 , -3.298828125 , 1.9931640625 , 3.2001953125 , 23.0905982906 , 37.3347985348 , -119.651282051 , -16.7236328125 , 66.1773681641 , 28.9459228516 
2018/05/17 17:47:12.218703 , -3.298828125 , 1.9931640625 , 3.2001953125 , 23.0905982906 , 37.3347985348 , -119.651282051 , -30.8227539062 , -6.04248046875 , 26.985168457 
2018/05/17 17:47:12.511243 , -4.6064453125 , 1.9619140625 , 3.96875 , 23.0905982906 , 37.3347985348 , -119.651282051 , -30.8227539062 , -6.04248046875 , 26.985168457 
2018/05/17 17:47:12.803757 , -4.6064453125 , 1.9619140625 , 3.96875 , 23.0905982906 , 37.3347985348 , -119.651282051 , -30.8227539062 , -6.04248046875 , 26.985168457 
2018/05/17 17:47:13.096263 , -4.6064453125 , 1.9619140625 , 3.96875 , 23.0905982906 , 37.3347985348 , -119.651282051 , -30.8227539062 , -6.04248046875 , 26.985168457 
2018/05/17 17:47:13.388809 , -6.1142578125 , 2.8623046875 , 3.8193359375 , 23.0905982906 , 37.3347985348 , -119.651282051 , -12.5503540039 , -1.25885009766 , 48.1033325195 
2018/05/17 17:47:13.681290 , -6.1142578125 , 2.8623046875 , 3.8193359375 , 23.0905982906 , 37.3347985348 , -119.651282051 , -12.5503540039 , -1.25885009766 , 48.1033325195 
2018/05/17 17:47:14.022580 , -6.1142578125 , 2.8623046875 , 3.8193359375 , 23.0905982906 , 37.3347985348 , -119.651282051 , -12.5503540039 , -1.25885009766 , 48.1033325195 
2018/05/17 17:47:14.315060 , -6.1142578125 , 2.8623046875 , 3.8193359375 , 23.0905982906 , 37.3347985348 , -119.651282051 , -0.946044921875 , 6.63757324219 , 6.63757324219 
2018/05/17 17:47:14.607599 , -1.748046875 , 0.6455078125 , 1.90625 , 23.0905982906 , 37.3347985348 , -119.651282051 , -0.946044921875 , 6.63757324219 , 6.63757324219 
2018/05/17 17:47:14.900113 , -1.748046875 , 0.6455078125 , 1.90625 , 23.0905982906 , 37.3347985348 , -119.651282051 , -0.946044921875 , 6.63757324219 , 6.63757324219 
2018/05/17 17:47:15.241413 , -1.748046875 , 0.6455078125 , 1.90625 , 23.0905982906 , 37.3347985348 , -119.651282051 , 19.53125 , -10.5667114258 , -39.1998291016 
2018/05/17 17:47:15.533902 , -1.0166015625 , 1.046875 , 1.1240234375 , 23.0905982906 , 37.3347985348 , -119.651282051 , 19.53125 , -10.5667114258 , -39.1998291016 
2018/05/17 17:47:15.875182 , -1.0166015625 , 1.046875 , 1.1240234375 , 23.0905982906 , 37.3347985348 , -119.651282051 , 19.53125 , -10.5667114258 , -39.1998291016 
2018/05/17 17:47:16.167674 , -1.0166015625 , 1.046875 , 1.1240234375 , 23.0905982906 , 37.3347985348 , -119.651282051 , 66.162109375 , -30.3955078125 , -50.2471923828 
2018/05/17 17:47:16.460194 , -1.24609375 , 2.466796875 , 2.7880859375 , 23.0905982906 , 37.3347985348 , -119.651282051 , 66.162109375 , -30.3955078125 , -50.2471923828 
2018/05/17 17:47:16.752729 , -1.24609375 , 2.466796875 , 2.7880859375 , 23.0905982906 , 37.3347985348 , -119.651282051 , 66.162109375 , -30.3955078125 , -50.2471923828 
2018/05/17 17:47:17.045230 , -1.24609375 , 2.466796875 , 2.7880859375 , 23.0905982906 , 37.3347985348 , -119.651282051 , 66.162109375 , -30.3955078125 , -50.2471923828 
2018/05/17 17:47:17.337738 , -2.1845703125 , 1.7724609375 , 2.07421875 , 23.0905982906 , 37.3347985348 , -119.651282051 , 77.2857666016 , -34.7290039062 , -55.0308227539 
2018/05/17 17:47:17.630276 , -2.1845703125 , 1.7724609375 , 2.07421875 , 23.0905982906 , 37.3347985348 , -119.651282051 , 77.2857666016 , -34.7290039062 , -55.0308227539 
2018/05/17 17:47:17.922813 , -2.1845703125 , 1.7724609375 , 2.07421875 , 23.0905982906 , 37.3347985348 , -119.651282051 , 77.2857666016 , -34.7290039062 , -55.0308227539 
2018/05/17 17:47:18.215298 , -2.1845703125 , 1.7724609375 , 2.07421875 , 23.0905982906 , 37.3347985348 , -119.651282051 , 14.4577026367 , -72.9751586914 , -49.8733520508 
2018/05/17 17:47:18.507801 , -2.50390625 , 0.8251953125 , 2.515625 , 23.0905982906 , 37.3347985348 , -119.651282051 , 14.4577026367 , -72.9751586914 , -49.8733520508 
2018/05/17 17:47:18.849069 , -2.50390625 , 0.8251953125 , 2.515625 , 23.0905982906 , 37.3347985348 , -119.651282051 , 14.4577026367 , -72.9751586914 , -49.8733520508 
2018/05/17 17:47:19.141594 , -2.50390625 , 0.8251953125 , 2.515625 , 23.0905982906 , 37.3347985348 , -119.651282051 , -9.30023193359 , -4.0283203125 , -67.0547485352 
2018/05/17 17:47:19.434097 , -3.3115234375 , 3.6494140625 , 1.4404296875 , 23.0905982906 , 37.3347985348 , -119.651282051 , -9.30023193359 , -4.0283203125 , -67.0547485352 
2018/05/17 17:47:19.726617 , -3.3115234375 , 3.6494140625 , 1.4404296875 , 23.0905982906 , 37.3347985348 , -119.651282051 , -9.30023193359 , -4.0283203125 , -67.0547485352 
2018/05/17 17:47:20.019122 , -3.3115234375 , 3.6494140625 , 1.4404296875 , 23.0905982906 , 37.3347985348 , -119.651282051 , -9.30023193359 , -4.0283203125 , -67.0547485352 
2018/05/17 17:47:20.311749 , -3.3115234375 , 3.6494140625 , 1.4404296875 , 23.0905982906 , 37.3347985348 , -119.651282051 , -19.5159912109 , -42.9153442383 , 2.0751953125 
2018/05/17 17:47:20.604160 , -3.0517578125 , 0.5029296875 , 2.7607421875 , 23.0905982906 , 37.3347985348 , -119.651282051 , -19.5159912109 , -42.9153442383 , 2.0751953125 
2018/05/17 17:47:20.896683 , -3.0517578125 , 0.5029296875 , 2.7607421875 , 23.0905982906 , 37.3347985348 , -119.651282051 , -19.5159912109 , -42.9153442383 , 2.0751953125 
2018/05/17 17:47:21.189185 , -3.0517578125 , 0.5029296875 , 2.7607421875 , 23.0905982906 , 37.3347985348 , -119.651282051 , 14.5797729492 , -20.01953125 , -13.9846801758 
2018/05/17 17:47:21.481704 , -1.31640625 , 0.6513671875 , 1.998046875 , 23.0905982906 , 37.3347985348 , -119.651282051 , 14.5797729492 , -20.01953125 , -13.9846801758 
2018/05/17 17:47:21.774228 , -1.31640625 , 0.6513671875 , 1.998046875 , 23.0905982906 , 37.3347985348 , -119.651282051 , 14.5797729492 , -20.01953125 , -13.9846801758 
2018/05/17 17:47:22.066716 , -1.31640625 , 0.6513671875 , 1.998046875 , 23.0905982906 , 37.3347985348 , -119.651282051 , 14.5797729492 , -20.01953125 , -13.9846801758 
2018/05/17 17:47:22.359257 , -2.1572265625 , 0.0185546875 , 1.7314453125 , 23.0905982906 , 37.3347985348 , -119.651282051 , 22.3999023438 , -52.116394043 , 0.404357910156 
2018/05/17 17:47:22.651771 , -2.1572265625 , 0.0185546875 , 1.7314453125 , 23.0905982906 , 37.3347985348 , -119.651282051 , 22.3999023438 , -52.116394043 , 0.404357910156 
2018/05/17 17:47:22.944279 , -2.1572265625 , 0.0185546875 , 1.7314453125 , 23.0905982906 , 37.3347985348 , -119.651282051 , 22.3999023438 , -52.116394043 , 0.404357910156 
2018/05/17 17:47:23.236800 , -2.1572265625 , 0.0185546875 , 1.7314453125 , 23.0905982906 , 37.3347985348 , -119.651282051 , -12.1536254883 , 32.470703125 , 41.7327880859 
2018/05/17 17:47:23.529290 , -2.0888671875 , 1.341796875 , 2.3203125 , 23.0905982906 , 37.3347985348 , -119.651282051 , -12.1536254883 , 32.470703125 , 41.7327880859 
2018/05/17 17:47:23.821843 , -2.0888671875 , 1.341796875 , 2.3203125 , 23.0905982906 , 37.3347985348 , -119.651282051 , -12.1536254883 , 32.470703125 , 41.7327880859 
2018/05/17 17:47:24.114330 , -2.0888671875 , 1.341796875 , 2.3203125 , 23.0905982906 , 37.3347985348 , -119.651282051 , -12.1536254883 , 32.470703125 , 41.7327880859 
2018/05/17 17:47:24.406857 , -2.6162109375 , 2.044921875 , 1.7060546875 , 23.0905982906 , 37.3347985348 , -119.651282051 , 6.39343261719 , 25.4821777344 , -6.40869140625 
2018/05/17 17:47:24.699347 , -2.6162109375 , 2.044921875 , 1.7060546875 , 23.0905982906 , 37.3347985348 , -119.651282051 , 6.39343261719 , 25.4821777344 , -6.40869140625 
2018/05/17 17:47:24.991874 , -2.6162109375 , 2.044921875 , 1.7060546875 , 23.0905982906 , 37.3347985348 , -119.651282051 , 6.39343261719 , 25.4821777344 , -6.40869140625 
2018/05/17 17:47:25.284398 , -2.6162109375 , 2.044921875 , 1.7060546875 , 23.0905982906 , 37.3347985348 , -119.651282051 , -9.22393798828 , 9.45281982422 , 7.82012939453 
2018/05/17 17:47:25.576899 , -2.353515625 , 1.8515625 , 2.353515625 , 23.0905982906 , 37.3347985348 , -119.651282051 , -9.22393798828 , 9.45281982422 , 7.82012939453 
2018/05/17 17:47:25.869434 , -2.353515625 , 1.8515625 , 2.353515625 , 23.0905982906 , 37.3347985348 , -119.651282051 , -9.22393798828 , 9.45281982422 , 7.82012939453 
2018/05/17 17:47:26.161950 , -2.353515625 , 1.8515625 , 2.353515625 , 23.0905982906 , 37.3347985348 , -119.651282051 , -5.95855712891 , 6.07299804688 , -1.953125 
2018/05/17 17:47:26.454450 , -2.5771484375 , 1.7158203125 , 2.6923828125 , 19.9418803419 , 18.5924297924 , -108.855677656 , -5.95855712891 , 6.07299804688 , -1.953125 
2018/05/17 17:47:26.746961 , -2.5771484375 , 1.7158203125 , 2.6923828125 , 19.9418803419 , 18.5924297924 , -108.855677656 , -5.95855712891 , 6.07299804688 , -1.953125 
