Connecting to 24:71:89:C1:0D:07
time ,acc-x,acc-y,acc-z ,mag-x,mag-y,mag-z ,gyr-x,gyr-y,gyr-z 
2018/05/16 12:21:21.133502 , 0.0 , 0.0 , 0.0 , 0.0 , 0.0 , 0.0 , 0.0 , 0.0 , 0.0 
2018/05/16 12:21:21.393487 , 0.0 , 0.0 , 0.0 , 0.0 , 0.0 , 0.0 , 0.0 , 0.0 , 0.0 
2018/05/16 12:21:21.685263 , 0.0 , 0.0 , 0.0 , 0.0 , 0.0 , 0.0 , -4.47082519531 , 2.71606445312 , 0.030517578125 
2018/05/16 12:21:21.977874 , 0.0302734375 , 0.85400390625 , 0.490478515625 , 0.0 , 0.0 , 0.0 , -4.47082519531 , 2.71606445312 , 0.030517578125 
2018/05/16 12:21:22.270579 , 0.0302734375 , 0.85400390625 , 0.490478515625 , 0.0 , 0.0 , 0.0 , -4.47082519531 , 2.71606445312 , 0.030517578125 
2018/05/16 12:21:22.563042 , 0.0302734375 , 0.85400390625 , 0.490478515625 , 0.0 , 0.0 , 0.0 , -4.47082519531 , 2.71606445312 , 0.030517578125 
2018/05/16 12:21:22.855569 , 0.0302734375 , 0.85400390625 , 0.490478515625 , 0.0 , 0.0 , 0.0 , -5.08880615234 , 4.95910644531 , -0.892639160156 
2018/05/16 12:21:23.148088 , 0.039306640625 , 0.852294921875 , 0.57763671875 , 0.0 , 0.0 , 0.0 , -5.08880615234 , 4.95910644531 , -0.892639160156 
2018/05/16 12:21:23.440649 , 0.039306640625 , 0.852294921875 , 0.57763671875 , 0.0 , 0.0 , 0.0 , -5.08880615234 , 4.95910644531 , -0.892639160156 
2018/05/16 12:21:23.733056 , 0.039306640625 , 0.852294921875 , 0.57763671875 , 0.0 , 0.0 , 0.0 , -6.68334960938 , 5.22613525391 , -1.30462646484 
2018/05/16 12:21:24.025787 , 0.040283203125 , 0.9052734375 , 0.508544921875 , 23.9902319902 , 33.8862026862 , -85.1653235653 , -6.68334960938 , 5.22613525391 , -1.30462646484 
2018/05/16 12:21:24.318149 , 0.040283203125 , 0.9052734375 , 0.508544921875 , 23.9902319902 , 33.8862026862 , -85.1653235653 , -6.68334960938 , 5.22613525391 , -1.30462646484 
2018/05/16 12:21:24.610603 , 0.040283203125 , 0.9052734375 , 0.508544921875 , 23.9902319902 , 33.8862026862 , -85.1653235653 , -6.68334960938 , 5.22613525391 , -1.30462646484 
2018/05/16 12:21:24.903405 , 0.03662109375 , 0.86572265625 , 0.53564453125 , 23.6903540904 , 34.9357753358 , -85.4652014652 , -3.81469726562 , 5.02777099609 , 0.221252441406 
2018/05/16 12:21:25.195725 , 0.03662109375 , 0.86572265625 , 0.53564453125 , 23.6903540904 , 34.9357753358 , -85.4652014652 , -3.81469726562 , 5.02777099609 , 0.221252441406 
2018/05/16 12:21:25.488103 , 0.03662109375 , 0.86572265625 , 0.53564453125 , 23.6903540904 , 34.9357753358 , -85.4652014652 , -3.81469726562 , 5.02777099609 , 0.221252441406 
2018/05/16 12:21:25.780676 , 0.03662109375 , 0.86572265625 , 0.53564453125 , 23.9902319902 , 33.5863247863 , -86.5147741148 , -3.86047363281 , 3.48663330078 , 0.411987304688 
2018/05/16 12:21:26.072842 , 0.0068359375 , 0.873291015625 , 0.547119140625 , 23.9902319902 , 33.5863247863 , -86.5147741148 , -3.86047363281 , 3.48663330078 , 0.411987304688 
2018/05/16 12:21:26.365268 , 0.0068359375 , 0.873291015625 , 0.547119140625 , 23.9902319902 , 33.5863247863 , -86.5147741148 , -3.86047363281 , 3.48663330078 , 0.411987304688 
2018/05/16 12:21:26.658110 , 0.0068359375 , 0.873291015625 , 0.547119140625 , 23.9902319902 , 33.5863247863 , -86.5147741148 , -3.86047363281 , 3.48663330078 , 0.411987304688 
2018/05/16 12:21:26.950704 , 0.013916015625 , 0.8994140625 , 0.523681640625 , 24.8898656899 , 33.4363858364 , -85.0153846154 , -2.88391113281 , 3.55529785156 , 0.648498535156 
2018/05/16 12:21:27.243205 , 0.013916015625 , 0.8994140625 , 0.523681640625 , 24.8898656899 , 33.4363858364 , -85.0153846154 , -2.88391113281 , 3.55529785156 , 0.648498535156 
2018/05/16 12:21:27.535547 , 0.013916015625 , 0.8994140625 , 0.523681640625 , 24.8898656899 , 33.4363858364 , -85.0153846154 , -2.88391113281 , 3.55529785156 , 0.648498535156 
2018/05/16 12:21:27.828100 , 0.013916015625 , 0.8994140625 , 0.523681640625 , 23.6903540904 , 33.5863247863 , -86.5147741148 , -5.01251220703 , 3.44848632812 , -0.633239746094 
2018/05/16 12:21:28.120595 , 0.05078125 , 0.849853515625 , 0.590087890625 , 23.6903540904 , 33.5863247863 , -86.5147741148 , -5.01251220703 , 3.44848632812 , -0.633239746094 
2018/05/16 12:21:28.413126 , 0.05078125 , 0.849853515625 , 0.590087890625 , 23.6903540904 , 33.5863247863 , -86.5147741148 , -5.01251220703 , 3.44848632812 , -0.633239746094 
2018/05/16 12:21:28.705615 , 0.05078125 , 0.849853515625 , 0.590087890625 , 23.6903540904 , 33.5863247863 , -86.5147741148 , -4.34875488281 , 4.33349609375 , -0.236511230469 
2018/05/16 12:21:28.998263 , 0.056884765625 , 0.905029296875 , 0.46826171875 , 23.9902319902 , 33.8862026862 , -85.7650793651 , -4.34875488281 , 4.33349609375 , -0.236511230469 
2018/05/16 12:21:29.290619 , 0.056884765625 , 0.905029296875 , 0.46826171875 , 23.9902319902 , 33.8862026862 , -85.7650793651 , -4.34875488281 , 4.33349609375 , -0.236511230469 
2018/05/16 12:21:29.583157 , 0.056884765625 , 0.905029296875 , 0.46826171875 , 23.9902319902 , 33.8862026862 , -85.7650793651 , -4.34875488281 , 4.33349609375 , -0.236511230469 
2018/05/16 12:21:29.875655 , 0.009033203125 , 0.856201171875 , 0.51611328125 , 24.58998779 , 33.4363858364 , -87.2644688645 , -3.90625 , 3.63922119141 , -1.0986328125 
2018/05/16 12:21:30.168134 , 0.009033203125 , 0.856201171875 , 0.51611328125 , 24.58998779 , 33.4363858364 , -87.2644688645 , -3.90625 , 3.63922119141 , -1.0986328125 
2018/05/16 12:21:30.460577 , 0.009033203125 , 0.856201171875 , 0.51611328125 , 24.58998779 , 33.4363858364 , -87.2644688645 , -3.90625 , 3.63922119141 , -1.0986328125 
2018/05/16 12:21:30.753245 , 0.009033203125 , 0.856201171875 , 0.51611328125 , 24.58998779 , 33.4363858364 , -87.2644688645 , -3.12805175781 , 3.99017333984 , -0.0839233398438 
2018/05/16 12:21:31.045666 , 0.020263671875 , 0.867919921875 , 0.559326171875 , 22.7907203907 , 34.1860805861 , -86.3648351648 , -3.12805175781 , 3.99017333984 , -0.0839233398438 
2018/05/16 12:21:31.338111 , 0.020263671875 , 0.867919921875 , 0.559326171875 , 22.7907203907 , 34.1860805861 , -86.3648351648 , -3.12805175781 , 3.99017333984 , -0.0839233398438 
2018/05/16 12:21:31.630606 , 0.020263671875 , 0.867919921875 , 0.559326171875 , 22.7907203907 , 34.1860805861 , -86.3648351648 , -3.12805175781 , 3.99017333984 , -0.0839233398438 
2018/05/16 12:21:31.923191 , -0.010009765625 , 0.865478515625 , 0.52490234375 , 22.6407814408 , 33.2864468864 , -84.7155067155 , -3.79943847656 , 4.50897216797 , -0.144958496094 
2018/05/16 12:21:32.215643 , -0.010009765625 , 0.865478515625 , 0.52490234375 , 22.6407814408 , 33.2864468864 , -84.7155067155 , -3.79943847656 , 4.50897216797 , -0.144958496094 
2018/05/16 12:21:32.508159 , -0.010009765625 , 0.865478515625 , 0.52490234375 , 22.6407814408 , 33.2864468864 , -84.7155067155 , -3.79943847656 , 4.50897216797 , -0.144958496094 
2018/05/16 12:21:32.800667 , -0.010009765625 , 0.865478515625 , 0.52490234375 , 25.6395604396 , 32.6866910867 , -84.2656898657 , -3.82995605469 , 2.82287597656 , -1.48010253906 
2018/05/16 12:21:33.093205 , 0.01171875 , 0.821533203125 , 0.5390625 , 25.6395604396 , 32.6866910867 , -84.2656898657 , -3.82995605469 , 2.82287597656 , -1.48010253906 
2018/05/16 12:21:33.385643 , 0.01171875 , 0.821533203125 , 0.5390625 , 25.6395604396 , 32.6866910867 , -84.2656898657 , -3.82995605469 , 2.82287597656 , -1.48010253906 
2018/05/16 12:21:33.678227 , 0.01171875 , 0.821533203125 , 0.5390625 , 25.6395604396 , 32.6866910867 , -84.2656898657 , -3.24249267578 , 0.885009765625 , -1.80053710938 
2018/05/16 12:21:33.970798 , -0.0322265625 , 0.86767578125 , 0.55859375 , 22.6407814408 , 35.3855921856 , -85.1653235653 , -3.24249267578 , 0.885009765625 , -1.80053710938 
2018/05/16 12:21:45.482839 , -0.0322265625 , 0.86767578125 , 0.55859375 , 22.6407814408 , 35.3855921856 , -85.1653235653 , -3.24249267578 , 0.885009765625 , -1.80053710938 
2018/05/16 12:21:45.775265 , -0.0322265625 , 0.86767578125 , 0.55859375 , 22.6407814408 , 35.3855921856 , -85.1653235653 , -3.24249267578 , 0.885009765625 , -1.80053710938 
2018/05/16 12:21:46.067925 , -0.0322265625 , 0.86767578125 , 0.55859375 , 22.190964591 , 33.8862026862 , -85.7650793651 , -4.09698486328 , 4.39453125 , -0.289916992188 
2018/05/16 12:21:46.360298 , 0.05615234375 , 0.913818359375 , 0.53564453125 , 22.190964591 , 33.8862026862 , -85.7650793651 , -4.09698486328 , 4.39453125 , -0.289916992188 
2018/05/16 12:21:46.653046 , 0.05615234375 , 0.913818359375 , 0.53564453125 , 22.190964591 , 33.8862026862 , -85.7650793651 , -4.09698486328 , 4.39453125 , -0.289916992188 
2018/05/16 12:21:46.945307 , 0.05615234375 , 0.913818359375 , 0.53564453125 , 22.190964591 , 33.8862026862 , -85.7650793651 , -2.84576416016 , 2.46429443359 , -0.175476074219 
2018/05/16 12:21:47.237896 , 0.03955078125 , 0.883544921875 , 0.500732421875 , 23.9902319902 , 32.5367521368 , -85.1653235653 , -2.84576416016 , 2.46429443359 , -0.175476074219 
2018/05/16 12:21:47.530259 , 0.03955078125 , 0.883544921875 , 0.500732421875 , 23.9902319902 , 32.5367521368 , -85.1653235653 , -2.84576416016 , 2.46429443359 , -0.175476074219 
2018/05/16 12:21:47.822794 , 0.03955078125 , 0.883544921875 , 0.500732421875 , 23.9902319902 , 32.5367521368 , -85.1653235653 , -2.84576416016 , 2.46429443359 , -0.175476074219 
2018/05/16 12:21:48.115391 , 0.05517578125 , 0.860595703125 , 0.553466796875 , 23.6903540904 , 32.5367521368 , -86.5147741148 , -4.76837158203 , 5.17272949219 , -1.23596191406 
2018/05/16 12:21:48.408007 , 0.05517578125 , 0.860595703125 , 0.553466796875 , 23.6903540904 , 32.5367521368 , -86.5147741148 , -4.76837158203 , 5.17272949219 , -1.23596191406 
2018/05/16 12:21:48.700338 , 0.05517578125 , 0.860595703125 , 0.553466796875 , 23.6903540904 , 32.5367521368 , -86.5147741148 , -4.76837158203 , 5.17272949219 , -1.23596191406 
2018/05/16 12:21:49.090314 , 0.0419921875 , 0.86669921875 , 0.480224609375 , 23.8402930403 , 33.7362637363 , -84.5655677656 , -5.69152832031 , 4.44030761719 , -1.73187255859 
2018/05/16 12:21:49.431581 , 0.0419921875 , 0.86669921875 , 0.480224609375 , 23.8402930403 , 33.7362637363 , -84.5655677656 , -5.69152832031 , 4.44030761719 , -1.73187255859 
2018/05/16 12:21:49.724041 , 0.0419921875 , 0.86669921875 , 0.480224609375 , 23.8402930403 , 33.7362637363 , -84.5655677656 , -5.69152832031 , 4.44030761719 , -1.73187255859 
2018/05/16 12:21:50.016515 , 0.0419921875 , 0.86669921875 , 0.480224609375 , 22.9406593407 , 35.6854700855 , -85.1653235653 , -2.12860107422 , 4.20379638672 , -0.0381469726562 
2018/05/16 12:21:50.309278 , 0.056640625 , 0.875244140625 , 0.528076171875 , 22.9406593407 , 35.6854700855 , -85.1653235653 , -2.12860107422 , 4.20379638672 , -0.0381469726562 
2018/05/16 12:21:50.602088 , 0.056640625 , 0.875244140625 , 0.528076171875 , 22.9406593407 , 35.6854700855 , -85.1653235653 , -2.12860107422 , 4.20379638672 , -0.0381469726562 
2018/05/16 12:21:50.894194 , 0.056640625 , 0.875244140625 , 0.528076171875 , 22.9406593407 , 35.6854700855 , -85.1653235653 , -3.82232666016 , 5.20324707031 , 0.167846679688 
2018/05/16 12:21:51.186781 , 0.02978515625 , 0.841552734375 , 0.571044921875 , 24.1401709402 , 33.7362637363 , -85.915018315 , -3.82232666016 , 5.20324707031 , 0.167846679688 
2018/05/16 12:21:51.479187 , 0.02978515625 , 0.841552734375 , 0.571044921875 , 24.1401709402 , 33.7362637363 , -85.915018315 , -3.82232666016 , 5.20324707031 , 0.167846679688 
2018/05/16 12:21:51.771602 , 0.02978515625 , 0.841552734375 , 0.571044921875 , 24.1401709402 , 33.7362637363 , -85.915018315 , -3.82232666016 , 5.20324707031 , 0.167846679688 
2018/05/16 12:21:52.064326 , 0.02978515625 , 0.841552734375 , 0.571044921875 , 24.1401709402 , 34.1860805861 , -85.6151404151 , -3.06701660156 , 3.65447998047 , 0.00762939453125 
2018/05/16 12:21:52.356657 , 0.0263671875 , 0.923828125 , 0.541259765625 , 24.1401709402 , 34.1860805861 , -85.6151404151 , -3.06701660156 , 3.65447998047 , 0.00762939453125 
2018/05/16 12:21:52.649057 , 0.0263671875 , 0.923828125 , 0.541259765625 , 24.1401709402 , 34.1860805861 , -85.6151404151 , -3.06701660156 , 3.65447998047 , 0.00762939453125 
2018/05/16 12:21:52.941633 , 0.0263671875 , 0.923828125 , 0.541259765625 , 24.1401709402 , 34.1860805861 , -85.6151404151 , -5.68389892578 , 3.74603271484 , -2.11334228516 
2018/05/16 12:21:53.234286 , 0.010498046875 , 0.8359375 , 0.559326171875 , 23.6903540904 , 34.336019536 , -86.8146520147 , -5.68389892578 , 3.74603271484 , -2.11334228516 
2018/05/16 12:21:53.526653 , 0.010498046875 , 0.8359375 , 0.559326171875 , 23.6903540904 , 34.336019536 , -86.8146520147 , -5.68389892578 , 3.74603271484 , -2.11334228516 
2018/05/16 12:21:53.819058 , 0.010498046875 , 0.8359375 , 0.559326171875 , 23.6903540904 , 34.336019536 , -86.8146520147 , -5.68389892578 , 3.74603271484 , -2.11334228516 
2018/05/16 12:21:54.111811 , -0.0048828125 , 0.921875 , 0.4990234375 , 22.7907203907 , 34.485958486 , -85.915018315 , -3.67736816406 , 5.15747070312 , -1.42669677734 
2018/05/16 12:21:54.453011 , -0.0048828125 , 0.921875 , 0.4990234375 , 22.7907203907 , 34.485958486 , -85.915018315 , -3.67736816406 , 5.15747070312 , -1.42669677734 
2018/05/16 12:21:54.745309 , -0.0048828125 , 0.921875 , 0.4990234375 , 22.7907203907 , 34.485958486 , -85.915018315 , -3.67736816406 , 5.15747070312 , -1.42669677734 
2018/05/16 12:21:55.038047 , -0.0048828125 , 0.921875 , 0.4990234375 , 23.8402930403 , 33.1365079365 , -83.9658119658 , -3.47900390625 , 1.72424316406 , -0.541687011719 
2018/05/16 12:21:55.330090 , 0.031982421875 , 0.914794921875 , 0.51708984375 , 23.8402930403 , 33.1365079365 , -83.9658119658 , -3.47900390625 , 1.72424316406 , -0.541687011719 
2018/05/16 12:21:55.622604 , 0.031982421875 , 0.914794921875 , 0.51708984375 , 23.8402930403 , 33.1365079365 , -83.9658119658 , -3.47900390625 , 1.72424316406 , -0.541687011719 
2018/05/16 12:21:55.915327 , 0.031982421875 , 0.914794921875 , 0.51708984375 , 23.8402930403 , 33.1365079365 , -83.9658119658 , -5.18035888672 , 4.59289550781 , -0.00762939453125 
2018/05/16 12:21:56.208077 , 0.02490234375 , 0.8828125 , 0.511474609375 , 23.8402930403 , 33.1365079365 , -83.9658119658 , -5.18035888672 , 4.59289550781 , -0.00762939453125 
2018/05/16 12:21:56.500385 , 0.02490234375 , 0.8828125 , 0.511474609375 , 23.8402930403 , 33.1365079365 , -83.9658119658 , -5.18035888672 , 4.59289550781 , -0.00762939453125 
2018/05/16 12:21:56.793037 , 0.02490234375 , 0.8828125 , 0.511474609375 , 23.8402930403 , 33.1365079365 , -83.9658119658 , -5.18035888672 , 4.59289550781 , -0.00762939453125 
2018/05/16 12:21:57.085536 , 0.052734375 , 0.910400390625 , 0.5185546875 , 23.8402930403 , 33.4363858364 , -85.915018315 , -2.48718261719 , 3.52478027344 , -0.198364257812 
2018/05/16 12:21:57.426785 , 0.052734375 , 0.910400390625 , 0.5185546875 , 23.8402930403 , 33.4363858364 , -85.915018315 , -2.48718261719 , 3.52478027344 , -0.198364257812 
2018/05/16 12:21:57.719157 , 0.052734375 , 0.910400390625 , 0.5185546875 , 23.8402930403 , 33.4363858364 , -85.915018315 , -2.48718261719 , 3.52478027344 , -0.198364257812 
2018/05/16 12:21:58.011676 , 0.052734375 , 0.910400390625 , 0.5185546875 , 23.8402930403 , 33.4363858364 , -85.915018315 , -6.33239746094 , 6.18743896484 , -0.679016113281 
2018/05/16 12:21:58.304327 , 0.041259765625 , 0.87890625 , 0.522705078125 , 23.8402930403 , 33.4363858364 , -85.915018315 , -6.33239746094 , 6.18743896484 , -0.679016113281 
2018/05/16 12:21:58.596800 , 0.041259765625 , 0.87890625 , 0.522705078125 , 23.8402930403 , 33.4363858364 , -85.915018315 , -6.33239746094 , 6.18743896484 , -0.679016113281 
2018/05/16 12:21:58.889121 , 0.041259765625 , 0.87890625 , 0.522705078125 , 23.8402930403 , 33.4363858364 , -85.915018315 , -5.88989257812 , 8.43811035156 , -0.938415527344 
2018/05/16 12:21:59.181488 , 0.038818359375 , 0.894287109375 , 0.574462890625 , 23.9902319902 , 33.8862026862 , -85.1653235653 , -5.88989257812 , 8.43811035156 , -0.938415527344 
2018/05/16 12:21:59.473968 , 0.038818359375 , 0.894287109375 , 0.574462890625 , 23.9902319902 , 33.8862026862 , -85.1653235653 , -5.88989257812 , 8.43811035156 , -0.938415527344 
2018/05/16 12:21:59.766757 , 0.038818359375 , 0.894287109375 , 0.574462890625 , 23.9902319902 , 33.8862026862 , -85.1653235653 , -5.88989257812 , 8.43811035156 , -0.938415527344 
2018/05/16 12:22:00.059398 , 0.038818359375 , 0.894287109375 , 0.574462890625 , 23.9902319902 , 33.8862026862 , -85.1653235653 , -6.24084472656 , 7.61413574219 , -1.30462646484 
2018/05/16 12:22:00.351666 , 0.014404296875 , 0.877197265625 , 0.507568359375 , 23.9902319902 , 33.8862026862 , -85.1653235653 , -6.24084472656 , 7.61413574219 , -1.30462646484 
2018/05/16 12:22:00.644179 , 0.014404296875 , 0.877197265625 , 0.507568359375 , 23.9902319902 , 33.8862026862 , -85.1653235653 , -6.24084472656 , 7.61413574219 , -1.30462646484 
2018/05/16 12:22:00.936661 , 0.014404296875 , 0.877197265625 , 0.507568359375 , 23.9902319902 , 33.8862026862 , -85.1653235653 , -3.82232666016 , 5.2490234375 , -0.0534057617188 
2018/05/16 12:22:01.229278 , 0.034423828125 , 0.86962890625 , 0.51220703125 , 22.6407814408 , 34.9357753358 , -86.2148962149 , -3.82232666016 , 5.2490234375 , -0.0534057617188 
2018/05/16 12:22:01.521683 , 0.034423828125 , 0.86962890625 , 0.51220703125 , 22.6407814408 , 34.9357753358 , -86.2148962149 , -3.82232666016 , 5.2490234375 , -0.0534057617188 
2018/05/16 12:22:01.814373 , 0.034423828125 , 0.86962890625 , 0.51220703125 , 22.6407814408 , 34.9357753358 , -86.2148962149 , -3.82232666016 , 5.2490234375 , -0.0534057617188 
2018/05/16 12:22:02.106925 , 0.021240234375 , 0.92822265625 , 0.515869140625 , 22.6407814408 , 34.9357753358 , -86.2148962149 , -3.32641601562 , 3.50189208984 , 0.381469726562 
2018/05/16 12:22:02.399384 , 0.021240234375 , 0.92822265625 , 0.515869140625 , 22.6407814408 , 34.9357753358 , -86.2148962149 , -3.32641601562 , 3.50189208984 , 0.381469726562 
2018/05/16 12:22:02.691723 , 0.021240234375 , 0.92822265625 , 0.515869140625 , 22.6407814408 , 34.9357753358 , -86.2148962149 , -3.32641601562 , 3.50189208984 , 0.381469726562 
2018/05/16 12:22:02.984197 , 0.021240234375 , 0.92822265625 , 0.515869140625 , 22.6407814408 , 34.9357753358 , -86.2148962149 , -3.70788574219 , 4.24957275391 , -0.625610351562 
2018/05/16 12:22:03.276796 , 0.007568359375 , 0.89794921875 , 0.556884765625 , 22.6407814408 , 34.9357753358 , -86.2148962149 , -3.70788574219 , 4.24957275391 , -0.625610351562 
2018/05/16 12:22:03.569347 , 0.007568359375 , 0.89794921875 , 0.556884765625 , 22.6407814408 , 34.9357753358 , -86.2148962149 , -3.70788574219 , 4.24957275391 , -0.625610351562 
2018/05/16 12:22:03.861738 , 0.007568359375 , 0.89794921875 , 0.556884765625 , 22.6407814408 , 34.9357753358 , -86.2148962149 , -3.70788574219 , 4.24957275391 , -0.625610351562 
2018/05/16 12:22:04.154410 , 0.08251953125 , 0.845458984375 , 0.56640625 , 24.1401709402 , 34.7858363858 , -86.3648351648 , -7.80487060547 , 7.60650634766 , 1.36566162109 
2018/05/16 12:22:04.446678 , 0.08251953125 , 0.845458984375 , 0.56640625 , 24.1401709402 , 34.7858363858 , -86.3648351648 , -7.80487060547 , 7.60650634766 , 1.36566162109 
2018/05/16 12:22:04.739234 , 0.08251953125 , 0.845458984375 , 0.56640625 , 24.1401709402 , 34.7858363858 , -86.3648351648 , -7.80487060547 , 7.60650634766 , 1.36566162109 
2018/05/16 12:22:05.031754 , 0.08251953125 , 0.845458984375 , 0.56640625 , 23.0905982906 , 34.7858363858 , -85.0153846154 , -5.03540039062 , 5.95092773438 , -2.11334228516 
2018/05/16 12:22:05.324420 , 0.00390625 , 0.889404296875 , 0.575439453125 , 23.0905982906 , 34.7858363858 , -85.0153846154 , -5.03540039062 , 5.95092773438 , -2.11334228516 
2018/05/16 12:22:05.616684 , 0.00390625 , 0.889404296875 , 0.575439453125 , 23.0905982906 , 34.7858363858 , -85.0153846154 , -5.03540039062 , 5.95092773438 , -2.11334228516 
2018/05/16 12:22:05.909364 , 0.00390625 , 0.889404296875 , 0.575439453125 , 23.0905982906 , 34.7858363858 , -85.0153846154 , -3.50952148438 , 5.72967529297 , 0.244140625 
2018/05/16 12:22:06.201944 , 0.02001953125 , 0.81201171875 , 0.5673828125 , 23.0905982906 , 34.7858363858 , -85.0153846154 , -3.50952148438 , 5.72967529297 , 0.244140625 
2018/05/16 12:22:06.494241 , 0.02001953125 , 0.81201171875 , 0.5673828125 , 23.0905982906 , 34.7858363858 , -85.0153846154 , -3.50952148438 , 5.72967529297 , 0.244140625 
2018/05/16 12:22:06.786707 , 0.02001953125 , 0.81201171875 , 0.5673828125 , 23.0905982906 , 34.7858363858 , -85.0153846154 , -3.50952148438 , 5.72967529297 , 0.244140625 
2018/05/16 12:22:07.079294 , 0.02001953125 , 0.81201171875 , 0.5673828125 , 23.0905982906 , 34.7858363858 , -85.0153846154 , -3.15856933594 , 4.24194335938 , 0.389099121094 
2018/05/16 12:22:07.371782 , 0.04833984375 , 0.907470703125 , 0.482421875 , 23.0905982906 , 34.7858363858 , -85.0153846154 , -3.15856933594 , 4.24194335938 , 0.389099121094 
2018/05/16 12:22:07.664440 , 0.04833984375 , 0.907470703125 , 0.482421875 , 23.0905982906 , 34.7858363858 , -85.0153846154 , -3.15856933594 , 4.24194335938 , 0.389099121094 
2018/05/16 12:22:07.956714 , 0.04833984375 , 0.907470703125 , 0.482421875 , 23.0905982906 , 34.7858363858 , -85.0153846154 , -6.27136230469 , 5.22613525391 , 1.5869140625 
2018/05/16 12:22:08.249307 , 0.0458984375 , 0.91162109375 , 0.5341796875 , 22.9406593407 , 34.336019536 , -85.4652014652 , -6.27136230469 , 5.22613525391 , 1.5869140625 
2018/05/16 12:22:08.541938 , 0.0458984375 , 0.91162109375 , 0.5341796875 , 22.9406593407 , 34.336019536 , -85.4652014652 , -6.27136230469 , 5.22613525391 , 1.5869140625 
2018/05/16 12:22:08.834317 , 0.0458984375 , 0.91162109375 , 0.5341796875 , 22.9406593407 , 34.336019536 , -85.4652014652 , -6.27136230469 , 5.22613525391 , 1.5869140625 
2018/05/16 12:22:09.126893 , 0.008544921875 , 0.890869140625 , 0.51220703125 , 24.7399267399 , 33.5863247863 , -84.4156288156 , -5.50079345703 , 7.40814208984 , -1.16729736328 
2018/05/16 12:22:09.419331 , 0.008544921875 , 0.890869140625 , 0.51220703125 , 24.7399267399 , 33.5863247863 , -84.4156288156 , -5.50079345703 , 7.40814208984 , -1.16729736328 
2018/05/16 12:22:09.711710 , 0.008544921875 , 0.890869140625 , 0.51220703125 , 24.7399267399 , 33.5863247863 , -84.4156288156 , -5.50079345703 , 7.40814208984 , -1.16729736328 
2018/05/16 12:22:10.004179 , 0.008544921875 , 0.890869140625 , 0.51220703125 , 24.58998779 , 32.6866910867 , -85.3152625153 , -4.87518310547 , 5.74493408203 , -1.32751464844 
2018/05/16 12:22:10.296744 , 0.062744140625 , 0.873779296875 , 0.510009765625 , 24.58998779 , 32.6866910867 , -85.3152625153 , -4.87518310547 , 5.74493408203 , -1.32751464844 
2018/05/16 12:22:10.589215 , 0.062744140625 , 0.873779296875 , 0.510009765625 , 24.58998779 , 32.6866910867 , -85.3152625153 , -4.87518310547 , 5.74493408203 , -1.32751464844 
2018/05/16 12:22:10.881795 , 0.062744140625 , 0.873779296875 , 0.510009765625 , 24.58998779 , 32.6866910867 , -85.3152625153 , -4.87518310547 , 5.74493408203 , -1.32751464844 
2018/05/16 12:22:11.174335 , 0.072021484375 , 0.88427734375 , 0.616455078125 , 22.7907203907 , 34.7858363858 , -85.3152625153 , -4.05883789062 , 4.45556640625 , -0.778198242188 
2018/05/16 12:22:11.466757 , 0.072021484375 , 0.88427734375 , 0.616455078125 , 22.7907203907 , 34.7858363858 , -85.3152625153 , -4.05883789062 , 4.45556640625 , -0.778198242188 
2018/05/16 12:22:11.759307 , 0.072021484375 , 0.88427734375 , 0.616455078125 , 22.7907203907 , 34.7858363858 , -85.3152625153 , -4.05883789062 , 4.45556640625 , -0.778198242188 
2018/05/16 12:22:12.052056 , 0.072021484375 , 0.88427734375 , 0.616455078125 , 23.5404151404 , 35.2356532357 , -85.6151404151 , -1.80816650391 , 2.197265625 , 0.205993652344 
2018/05/16 12:22:12.344349 , 0.019287109375 , 0.853271484375 , 0.5771484375 , 23.5404151404 , 35.2356532357 , -85.6151404151 , -1.80816650391 , 2.197265625 , 0.205993652344 
2018/05/16 12:22:12.636847 , 0.019287109375 , 0.853271484375 , 0.5771484375 , 23.5404151404 , 35.2356532357 , -85.6151404151 , -1.80816650391 , 2.197265625 , 0.205993652344 
2018/05/16 12:22:12.929246 , 0.019287109375 , 0.853271484375 , 0.5771484375 , 23.5404151404 , 35.2356532357 , -85.6151404151 , -3.76129150391 , 5.859375 , -0.755310058594 
2018/05/16 12:22:13.221856 , 0.026123046875 , 0.897216796875 , 0.5517578125 , 22.7907203907 , 33.4363858364 , -85.6151404151 , -3.76129150391 , 5.859375 , -0.755310058594 
2018/05/16 12:22:13.563105 , 0.026123046875 , 0.897216796875 , 0.5517578125 , 22.7907203907 , 33.4363858364 , -85.6151404151 , -3.76129150391 , 5.859375 , -0.755310058594 
2018/05/16 12:22:13.904315 , 0.026123046875 , 0.897216796875 , 0.5517578125 , 22.7907203907 , 33.4363858364 , -85.6151404151 , -3.37982177734 , 3.79943847656 , -0.892639160156 
2018/05/16 12:22:14.196850 , -0.011474609375 , 0.908203125 , 0.547607421875 , 24.2901098901 , 34.336019536 , -86.5147741148 , -3.37982177734 , 3.79943847656 , -0.892639160156 
2018/05/16 12:22:14.489347 , -0.011474609375 , 0.908203125 , 0.547607421875 , 24.2901098901 , 34.336019536 , -86.5147741148 , -3.37982177734 , 3.79943847656 , -0.892639160156 
2018/05/16 12:22:14.781846 , -0.011474609375 , 0.908203125 , 0.547607421875 , 24.2901098901 , 34.336019536 , -86.5147741148 , -3.37982177734 , 3.79943847656 , -0.892639160156 
2018/05/16 12:22:15.074462 , -0.011474609375 , 0.908203125 , 0.547607421875 , 23.8402930403 , 34.7858363858 , -85.915018315 , -6.04248046875 , 4.46319580078 , -0.091552734375 
2018/05/16 12:22:15.366780 , 0.0263671875 , 0.869140625 , 0.56591796875 , 23.8402930403 , 34.7858363858 , -85.915018315 , -6.04248046875 , 4.46319580078 , -0.091552734375 
2018/05/16 12:22:15.659278 , 0.0263671875 , 0.869140625 , 0.56591796875 , 23.8402930403 , 34.7858363858 , -85.915018315 , -6.04248046875 , 4.46319580078 , -0.091552734375 
2018/05/16 12:22:15.951768 , 0.0263671875 , 0.869140625 , 0.56591796875 , 23.8402930403 , 34.7858363858 , -85.915018315 , -2.18200683594 , 4.24194335938 , -1.27410888672 
2018/05/16 12:22:16.244374 , 0.05419921875 , 0.89599609375 , 0.573974609375 , 25.0398046398 , 33.2864468864 , -86.2148962149 , -2.18200683594 , 4.24194335938 , -1.27410888672 
2018/05/16 12:22:16.536783 , 0.05419921875 , 0.89599609375 , 0.573974609375 , 25.0398046398 , 33.2864468864 , -86.2148962149 , -2.18200683594 , 4.24194335938 , -1.27410888672 
2018/05/16 12:22:16.829396 , 0.05419921875 , 0.89599609375 , 0.573974609375 , 25.0398046398 , 33.2864468864 , -86.2148962149 , -2.18200683594 , 4.24194335938 , -1.27410888672 
2018/05/16 12:22:17.122009 , 0.076904296875 , 0.86962890625 , 0.50830078125 , 22.9406593407 , 33.8862026862 , -85.1653235653 , -3.41033935547 , 3.64685058594 , -0.816345214844 
2018/05/16 12:22:17.414520 , 0.076904296875 , 0.86962890625 , 0.50830078125 , 22.9406593407 , 33.8862026862 , -85.1653235653 , -3.41033935547 , 3.64685058594 , -0.816345214844 
2018/05/16 12:22:17.706763 , 0.076904296875 , 0.86962890625 , 0.50830078125 , 22.9406593407 , 33.8862026862 , -85.1653235653 , -3.41033935547 , 3.64685058594 , -0.816345214844 
2018/05/16 12:22:17.999240 , 0.076904296875 , 0.86962890625 , 0.50830078125 , 23.8402930403 , 33.7362637363 , -86.6647130647 , -3.86810302734 , 6.01196289062 , -0.816345214844 
2018/05/16 12:22:18.292000 , 0.04052734375 , 0.85498046875 , 0.542724609375 , 23.8402930403 , 33.7362637363 , -86.6647130647 , -3.86810302734 , 6.01196289062 , -0.816345214844 
2018/05/16 12:22:18.584403 , 0.04052734375 , 0.85498046875 , 0.542724609375 , 23.8402930403 , 33.7362637363 , -86.6647130647 , -3.86810302734 , 6.01196289062 , -0.816345214844 
2018/05/16 12:22:18.876928 , 0.04052734375 , 0.85498046875 , 0.542724609375 , 23.8402930403 , 33.7362637363 , -86.6647130647 , -3.86810302734 , 6.01196289062 , -0.816345214844 
2018/05/16 12:22:19.169664 , 0.009765625 , 0.861083984375 , 0.51953125 , 23.9902319902 , 35.3855921856 , -86.5147741148 , -4.53948974609 , 4.53186035156 , -1.54113769531 
2018/05/16 12:22:19.461991 , 0.009765625 , 0.861083984375 , 0.51953125 , 23.9902319902 , 35.3855921856 , -86.5147741148 , -4.53948974609 , 4.53186035156 , -1.54113769531 
2018/05/16 12:22:19.754587 , 0.009765625 , 0.861083984375 , 0.51953125 , 23.9902319902 , 35.3855921856 , -86.5147741148 , -4.53948974609 , 4.53186035156 , -1.54113769531 
2018/05/16 12:22:20.047160 , 0.009765625 , 0.861083984375 , 0.51953125 , 23.9902319902 , 35.6854700855 , -86.5147741148 , -7.71331787109 , 7.68280029297 , -1.93023681641 
2018/05/16 12:22:20.339723 , 0.00732421875 , 0.837646484375 , 0.54443359375 , 23.9902319902 , 35.6854700855 , -86.5147741148 , -7.71331787109 , 7.68280029297 , -1.93023681641 
2018/05/16 12:22:20.632125 , 0.00732421875 , 0.837646484375 , 0.54443359375 , 23.9902319902 , 35.6854700855 , -86.5147741148 , -7.71331787109 , 7.68280029297 , -1.93023681641 
2018/05/16 12:22:20.924690 , 0.00732421875 , 0.837646484375 , 0.54443359375 , 23.9902319902 , 35.6854700855 , -86.5147741148 , -4.82940673828 , 5.72967529297 , -0.54931640625 
2018/05/16 12:22:21.217396 , 0.011474609375 , 0.89404296875 , 0.51806640625 , 24.58998779 , 32.6866910867 , -84.2656898657 , -4.82940673828 , 5.72967529297 , -0.54931640625 
2018/05/16 12:22:21.509801 , 0.011474609375 , 0.89404296875 , 0.51806640625 , 24.58998779 , 32.6866910867 , -84.2656898657 , -4.82940673828 , 5.72967529297 , -0.54931640625 
2018/05/16 12:22:21.802300 , 0.011474609375 , 0.89404296875 , 0.51806640625 , 24.58998779 , 32.6866910867 , -84.2656898657 , -4.82940673828 , 5.72967529297 , -0.54931640625 
2018/05/16 12:22:22.094848 , 0.0283203125 , 0.894287109375 , 0.532470703125 , 25.6395604396 , 33.7362637363 , -85.6151404151 , -6.68334960938 , 5.59997558594 , -0.152587890625 
2018/05/16 12:22:22.387419 , 0.0283203125 , 0.894287109375 , 0.532470703125 , 25.6395604396 , 33.7362637363 , -85.6151404151 , -6.68334960938 , 5.59997558594 , -0.152587890625 
2018/05/16 12:22:22.679979 , 0.0283203125 , 0.894287109375 , 0.532470703125 , 25.6395604396 , 33.7362637363 , -85.6151404151 , -6.68334960938 , 5.59997558594 , -0.152587890625 
2018/05/16 12:22:22.972468 , 0.0283203125 , 0.894287109375 , 0.532470703125 , 25.6395604396 , 33.7362637363 , -85.6151404151 , -1.99127197266 , 4.50134277344 , -1.99127197266 
2018/05/16 12:22:23.265196 , 0.057861328125 , 0.85107421875 , 0.5244140625 , 22.9406593407 , 34.336019536 , -85.1653235653 , -1.99127197266 , 4.50134277344 , -1.99127197266 
2018/05/16 12:22:23.557509 , 0.057861328125 , 0.85107421875 , 0.5244140625 , 22.9406593407 , 34.336019536 , -85.1653235653 , -1.99127197266 , 4.50134277344 , -1.99127197266 
2018/05/16 12:22:23.850264 , 0.057861328125 , 0.85107421875 , 0.5244140625 , 22.9406593407 , 34.336019536 , -85.1653235653 , -1.99127197266 , 4.50134277344 , -1.99127197266 
2018/05/16 12:22:24.142823 , 0.080322265625 , 0.841796875 , 0.538330078125 , 25.3396825397 , 34.336019536 , -85.4652014652 , -6.13403320312 , 7.41577148438 , -0.18310546875 
2018/05/16 12:22:24.435237 , 0.080322265625 , 0.841796875 , 0.538330078125 , 25.3396825397 , 34.336019536 , -85.4652014652 , -6.13403320312 , 7.41577148438 , -0.18310546875 
2018/05/16 12:22:24.727624 , 0.080322265625 , 0.841796875 , 0.538330078125 , 25.3396825397 , 34.336019536 , -85.4652014652 , -6.13403320312 , 7.41577148438 , -0.18310546875 
2018/05/16 12:22:25.020291 , 0.080322265625 , 0.841796875 , 0.538330078125 , 20.8415140415 , 33.5863247863 , -86.5147741148 , -4.5166015625 , 1.88446044922 , -1.10626220703 
2018/05/16 12:22:25.312797 , 0.034912109375 , 0.9365234375 , 0.5478515625 , 20.8415140415 , 33.5863247863 , -86.5147741148 , -4.5166015625 , 1.88446044922 , -1.10626220703 
2018/05/16 12:22:25.605347 , 0.034912109375 , 0.9365234375 , 0.5478515625 , 20.8415140415 , 33.5863247863 , -86.5147741148 , -4.5166015625 , 1.88446044922 , -1.10626220703 
2018/05/16 12:22:25.897777 , 0.034912109375 , 0.9365234375 , 0.5478515625 , 20.8415140415 , 33.5863247863 , -86.5147741148 , -2.22015380859 , 2.54821777344 , 0.129699707031 
2018/05/16 12:22:26.190693 , 0.00390625 , 0.86767578125 , 0.53271484375 , 24.2901098901 , 31.4871794872 , -86.2148962149 , -2.22015380859 , 2.54821777344 , 0.129699707031 
2018/05/16 12:22:26.482959 , 0.00390625 , 0.86767578125 , 0.53271484375 , 24.2901098901 , 31.4871794872 , -86.2148962149 , -2.22015380859 , 2.54821777344 , 0.129699707031 
2018/05/16 12:22:26.775360 , 0.00390625 , 0.86767578125 , 0.53271484375 , 24.2901098901 , 31.4871794872 , -86.2148962149 , -2.22015380859 , 2.54821777344 , 0.129699707031 
2018/05/16 12:22:27.067927 , 0.00390625 , 0.86767578125 , 0.53271484375 , 23.6903540904 , 34.6358974359 , -85.4652014652 , -3.73077392578 , 4.73022460938 , 0.152587890625 
2018/05/16 12:22:27.360528 , -0.013427734375 , 0.880126953125 , 0.55615234375 , 23.6903540904 , 34.6358974359 , -85.4652014652 , -3.73077392578 , 4.73022460938 , 0.152587890625 
2018/05/16 12:22:27.653014 , -0.013427734375 , 0.880126953125 , 0.55615234375 , 23.6903540904 , 34.6358974359 , -85.4652014652 , -3.73077392578 , 4.73022460938 , 0.152587890625 
2018/05/16 12:22:27.994321 , -0.013427734375 , 0.880126953125 , 0.55615234375 , 23.8402930403 , 34.485958486 , -85.6151404151 , -5.07354736328 , 3.33404541016 , -0.724792480469 
2018/05/16 12:22:28.286840 , 0.045166015625 , 0.89990234375 , 0.57861328125 , 23.8402930403 , 34.485958486 , -85.6151404151 , -5.07354736328 , 3.33404541016 , -0.724792480469 
2018/05/16 12:22:28.579415 , 0.045166015625 , 0.89990234375 , 0.57861328125 , 23.8402930403 , 34.485958486 , -85.6151404151 , -5.07354736328 , 3.33404541016 , -0.724792480469 
2018/05/16 12:22:28.871766 , 0.045166015625 , 0.89990234375 , 0.57861328125 , 23.8402930403 , 34.485958486 , -85.6151404151 , -5.07354736328 , 3.33404541016 , -0.724792480469 
2018/05/16 12:22:29.164350 , 0.01708984375 , 0.854248046875 , 0.570556640625 , 22.7907203907 , 34.1860805861 , -86.3648351648 , -5.87463378906 , 5.47027587891 , 0.389099121094 
2018/05/16 12:22:29.456830 , 0.01708984375 , 0.854248046875 , 0.570556640625 , 22.7907203907 , 34.1860805861 , -86.3648351648 , -5.87463378906 , 5.47027587891 , 0.389099121094 
2018/05/16 12:22:29.749322 , 0.01708984375 , 0.854248046875 , 0.570556640625 , 22.7907203907 , 34.1860805861 , -86.3648351648 , -5.87463378906 , 5.47027587891 , 0.389099121094 
2018/05/16 12:22:30.041937 , 0.01708984375 , 0.854248046875 , 0.570556640625 , 22.190964591 , 33.5863247863 , -85.4652014652 , -6.29425048828 , 6.50787353516 , -0.312805175781 
2018/05/16 12:22:30.334401 , 0.06396484375 , 0.869384765625 , 0.534423828125 , 22.190964591 , 33.5863247863 , -85.4652014652 , -6.29425048828 , 6.50787353516 , -0.312805175781 
2018/05/16 12:22:30.626909 , 0.06396484375 , 0.869384765625 , 0.534423828125 , 22.190964591 , 33.5863247863 , -85.4652014652 , -6.29425048828 , 6.50787353516 , -0.312805175781 
2018/05/16 12:22:30.919404 , 0.06396484375 , 0.869384765625 , 0.534423828125 , 22.190964591 , 33.5863247863 , -85.4652014652 , -5.76019287109 , 4.35638427734 , -1.14440917969 
2018/05/16 12:22:31.212131 , 0.051025390625 , 0.887451171875 , 0.52294921875 , 22.041025641 , 35.2356532357 , -85.6151404151 , -5.76019287109 , 4.35638427734 , -1.14440917969 
2018/05/16 12:22:31.504444 , 0.051025390625 , 0.887451171875 , 0.52294921875 , 22.041025641 , 35.2356532357 , -85.6151404151 , -5.76019287109 , 4.35638427734 , -1.14440917969 
2018/05/16 12:22:31.796966 , 0.051025390625 , 0.887451171875 , 0.52294921875 , 22.041025641 , 35.2356532357 , -85.6151404151 , -5.76019287109 , 4.35638427734 , -1.14440917969 
2018/05/16 12:22:32.089696 , 0.073974609375 , 0.89404296875 , 0.5517578125 , 25.0398046398 , 34.6358974359 , -85.1653235653 , -5.859375 , 5.44738769531 , -0.381469726562 
2018/05/16 12:22:32.382173 , 0.073974609375 , 0.89404296875 , 0.5517578125 , 25.0398046398 , 34.6358974359 , -85.1653235653 , -5.859375 , 5.44738769531 , -0.381469726562 
2018/05/16 12:22:32.674534 , 0.073974609375 , 0.89404296875 , 0.5517578125 , 25.0398046398 , 34.6358974359 , -85.1653235653 , -5.859375 , 5.44738769531 , -0.381469726562 
2018/05/16 12:22:32.967030 , 0.073974609375 , 0.89404296875 , 0.5517578125 , 25.0398046398 , 34.6358974359 , -85.1653235653 , -4.73785400391 , 5.11932373047 , 0.572204589844 
2018/05/16 12:22:33.259657 , 0.0302734375 , 0.856689453125 , 0.575439453125 , 23.2405372405 , 34.336019536 , -86.8146520147 , -4.73785400391 , 5.11932373047 , 0.572204589844 
2018/05/16 12:22:33.552091 , 0.0302734375 , 0.856689453125 , 0.575439453125 , 23.2405372405 , 34.336019536 , -86.8146520147 , -4.73785400391 , 5.11932373047 , 0.572204589844 
2018/05/16 12:22:33.844894 , 0.0302734375 , 0.856689453125 , 0.575439453125 , 23.2405372405 , 34.336019536 , -86.8146520147 , -4.73785400391 , 5.11932373047 , 0.572204589844 
2018/05/16 12:22:34.137340 , 0.093505859375 , 0.876220703125 , 0.524169921875 , 25.3396825397 , 35.3855921856 , -85.4652014652 , -5.83648681641 , 7.65228271484 , 1.35803222656 
2018/05/16 12:22:34.429619 , 0.093505859375 , 0.876220703125 , 0.524169921875 , 25.3396825397 , 35.3855921856 , -85.4652014652 , -5.83648681641 , 7.65228271484 , 1.35803222656 
2018/05/16 12:22:34.722374 , 0.093505859375 , 0.876220703125 , 0.524169921875 , 25.3396825397 , 35.3855921856 , -85.4652014652 , -5.83648681641 , 7.65228271484 , 1.35803222656 
2018/05/16 12:22:35.014833 , 0.093505859375 , 0.876220703125 , 0.524169921875 , 22.9406593407 , 34.336019536 , -86.5147741148 , -2.13623046875 , 3.07464599609 , -0.358581542969 
2018/05/16 12:22:35.307275 , 0.04833984375 , 0.857421875 , 0.5166015625 , 22.9406593407 , 34.336019536 , -86.5147741148 , -2.13623046875 , 3.07464599609 , -0.358581542969 
2018/05/16 12:22:35.599718 , 0.04833984375 , 0.857421875 , 0.5166015625 , 22.9406593407 , 34.336019536 , -86.5147741148 , -2.13623046875 , 3.07464599609 , -0.358581542969 
2018/05/16 12:22:35.892246 , 0.04833984375 , 0.857421875 , 0.5166015625 , 22.9406593407 , 34.336019536 , -86.5147741148 , 0.404357910156 , 1.69372558594 , 0.892639160156 
2018/05/16 12:22:36.184920 , 0.06298828125 , 0.8046875 , 0.572021484375 , 24.2901098901 , 32.2368742369 , -84.1157509158 , 0.404357910156 , 1.69372558594 , 0.892639160156 
2018/05/16 12:22:36.477323 , 0.06298828125 , 0.8046875 , 0.572021484375 , 24.2901098901 , 32.2368742369 , -84.1157509158 , 0.404357910156 , 1.69372558594 , 0.892639160156 
2018/05/16 12:22:36.769798 , 0.06298828125 , 0.8046875 , 0.572021484375 , 24.2901098901 , 32.2368742369 , -84.1157509158 , 0.404357910156 , 1.69372558594 , 0.892639160156 
2018/05/16 12:22:37.062335 , 0.06298828125 , 0.8046875 , 0.572021484375 , 24.2901098901 , 32.2368742369 , -84.1157509158 , -6.14929199219 , 5.48553466797 , -0.6103515625 
2018/05/16 12:22:37.355046 , 0.08154296875 , 0.85302734375 , 0.529052734375 , 24.2901098901 , 32.2368742369 , -84.1157509158 , -6.14929199219 , 5.48553466797 , -0.6103515625 
2018/05/16 12:22:37.647495 , 0.08154296875 , 0.85302734375 , 0.529052734375 , 24.2901098901 , 32.2368742369 , -84.1157509158 , -6.14929199219 , 5.48553466797 , -0.6103515625 
2018/05/16 12:22:37.939869 , 0.08154296875 , 0.85302734375 , 0.529052734375 , 24.2901098901 , 32.2368742369 , -84.1157509158 , -2.90679931641 , 3.25775146484 , -0.968933105469 
2018/05/16 12:22:38.232725 , 0.052001953125 , 0.878173828125 , 0.529296875 , 24.2901098901 , 33.8862026862 , -86.5147741148 , -2.90679931641 , 3.25775146484 , -0.968933105469 
2018/05/16 12:22:38.573781 , 0.052001953125 , 0.878173828125 , 0.529296875 , 24.2901098901 , 33.8862026862 , -86.5147741148 , -2.90679931641 , 3.25775146484 , -0.968933105469 
2018/05/16 12:22:38.866315 , 0.052001953125 , 0.878173828125 , 0.529296875 , 24.2901098901 , 33.8862026862 , -86.5147741148 , -2.90679931641 , 3.25775146484 , -0.968933105469 
2018/05/16 12:22:39.158943 , 0.02783203125 , 0.8818359375 , 0.51171875 , 24.2901098901 , 33.8862026862 , -86.5147741148 , -5.95092773438 , 6.06536865234 , -0.381469726562 
2018/05/16 12:22:39.451298 , 0.02783203125 , 0.8818359375 , 0.51171875 , 24.2901098901 , 33.8862026862 , -86.5147741148 , -5.95092773438 , 6.06536865234 , -0.381469726562 
2018/05/16 12:22:39.743820 , 0.02783203125 , 0.8818359375 , 0.51171875 , 24.2901098901 , 33.8862026862 , -86.5147741148 , -5.95092773438 , 6.06536865234 , -0.381469726562 
2018/05/16 12:22:40.036455 , 0.02783203125 , 0.8818359375 , 0.51171875 , 24.2901098901 , 32.8366300366 , -86.5147741148 , -3.74603271484 , 3.44085693359 , -1.51062011719 
2018/05/16 12:22:40.328799 , 0.02685546875 , 0.850830078125 , 0.5439453125 , 24.2901098901 , 32.8366300366 , -86.5147741148 , -3.74603271484 , 3.44085693359 , -1.51062011719 
2018/05/16 12:22:40.621402 , 0.02685546875 , 0.850830078125 , 0.5439453125 , 24.2901098901 , 32.8366300366 , -86.5147741148 , -3.74603271484 , 3.44085693359 , -1.51062011719 
2018/05/16 12:22:40.913896 , 0.02685546875 , 0.850830078125 , 0.5439453125 , 24.2901098901 , 32.8366300366 , -86.5147741148 , -5.72204589844 , 7.42340087891 , -1.91497802734 
2018/05/16 12:22:41.206448 , 0.029296875 , 0.83984375 , 0.521240234375 , 24.2901098901 , 32.8366300366 , -86.5147741148 , -5.72204589844 , 7.42340087891 , -1.91497802734 
2018/05/16 12:22:41.547642 , 0.029296875 , 0.83984375 , 0.521240234375 , 24.2901098901 , 32.8366300366 , -86.5147741148 , -5.72204589844 , 7.42340087891 , -1.91497802734 
2018/05/16 12:22:41.840210 , 0.029296875 , 0.83984375 , 0.521240234375 , 24.2901098901 , 32.8366300366 , -86.5147741148 , -5.72204589844 , 7.42340087891 , -1.91497802734 
2018/05/16 12:22:42.133132 , 0.029052734375 , 0.86376953125 , 0.487060546875 , 23.9902319902 , 33.8862026862 , -85.7650793651 , -4.69970703125 , 5.71441650391 , -1.56402587891 
2018/05/16 12:22:42.425256 , 0.029052734375 , 0.86376953125 , 0.487060546875 , 23.9902319902 , 33.8862026862 , -85.7650793651 , -4.69970703125 , 5.71441650391 , -1.56402587891 
2018/05/16 12:22:42.717614 , 0.029052734375 , 0.86376953125 , 0.487060546875 , 23.9902319902 , 33.8862026862 , -85.7650793651 , -4.69970703125 , 5.71441650391 , -1.56402587891 
2018/05/16 12:22:43.010173 , 0.029052734375 , 0.86376953125 , 0.487060546875 , 23.9902319902 , 33.8862026862 , -85.7650793651 , -4.70733642578 , 4.95910644531 , -0.724792480469 
2018/05/16 12:22:43.302781 , -0.010986328125 , 0.879150390625 , 0.568603515625 , 23.9902319902 , 33.8862026862 , -85.7650793651 , -4.70733642578 , 4.95910644531 , -0.724792480469 
2018/05/16 12:22:43.595228 , -0.010986328125 , 0.879150390625 , 0.568603515625 , 23.9902319902 , 33.8862026862 , -85.7650793651 , -4.70733642578 , 4.95910644531 , -0.724792480469 
2018/05/16 12:22:43.887699 , -0.010986328125 , 0.879150390625 , 0.568603515625 , 23.9902319902 , 33.8862026862 , -85.7650793651 , -4.70733642578 , 4.95910644531 , -0.724792480469 
2018/05/16 12:22:44.180015 , 0.02978515625 , 0.90771484375 , 0.545166015625 , 23.9902319902 , 33.8862026862 , -85.7650793651 , -3.82995605469 , 4.69207763672 , -1.51824951172 
2018/05/16 12:22:44.472453 , 0.02978515625 , 0.90771484375 , 0.545166015625 , 23.9902319902 , 33.8862026862 , -85.7650793651 , -3.82995605469 , 4.69207763672 , -1.51824951172 
2018/05/16 12:22:44.764803 , 0.02978515625 , 0.90771484375 , 0.545166015625 , 23.9902319902 , 33.8862026862 , -85.7650793651 , -3.82995605469 , 4.69207763672 , -1.51824951172 
2018/05/16 12:22:45.057660 , 0.02978515625 , 0.90771484375 , 0.545166015625 , 24.2901098901 , 34.336019536 , -85.1653235653 , -3.45611572266 , 5.64575195312 , -1.67846679688 
2018/05/16 12:22:45.350179 , 0.031982421875 , 0.870361328125 , 0.5537109375 , 24.2901098901 , 34.336019536 , -85.1653235653 , -3.45611572266 , 5.64575195312 , -1.67846679688 
2018/05/16 12:22:45.642686 , 0.031982421875 , 0.870361328125 , 0.5537109375 , 24.2901098901 , 34.336019536 , -85.1653235653 , -3.45611572266 , 5.64575195312 , -1.67846679688 
2018/05/16 12:22:45.935116 , 0.031982421875 , 0.870361328125 , 0.5537109375 , 24.2901098901 , 34.336019536 , -85.1653235653 , -5.37109375 , 7.77435302734 , 0.709533691406 
2018/05/16 12:22:46.227954 , 0.037841796875 , 0.855712890625 , 0.54443359375 , 25.6395604396 , 34.1860805861 , -85.3152625153 , -5.37109375 , 7.77435302734 , 0.709533691406 
2018/05/16 12:22:46.520250 , 0.037841796875 , 0.855712890625 , 0.54443359375 , 25.6395604396 , 34.1860805861 , -85.3152625153 , -5.37109375 , 7.77435302734 , 0.709533691406 
2018/05/16 12:22:46.812740 , 0.037841796875 , 0.855712890625 , 0.54443359375 , 25.6395604396 , 34.1860805861 , -85.3152625153 , -5.37109375 , 7.77435302734 , 0.709533691406 
2018/05/16 12:22:47.153931 , 0.009521484375 , 0.8271484375 , 0.49169921875 , 25.6395604396 , 34.1860805861 , -85.3152625153 , -5.67626953125 , 4.63104248047 , -0.740051269531 
2018/05/16 12:22:47.446543 , 0.009521484375 , 0.8271484375 , 0.49169921875 , 25.6395604396 , 34.1860805861 , -85.3152625153 , -5.67626953125 , 4.63104248047 , -0.740051269531 
2018/05/16 12:22:47.739006 , 0.009521484375 , 0.8271484375 , 0.49169921875 , 25.6395604396 , 34.1860805861 , -85.3152625153 , -5.67626953125 , 4.63104248047 , -0.740051269531 
2018/05/16 12:22:48.031501 , 0.009521484375 , 0.8271484375 , 0.49169921875 , 25.6395604396 , 34.1860805861 , -85.3152625153 , -2.66265869141 , 2.03704833984 , -0.755310058594 
2018/05/16 12:22:48.324149 , 0.05078125 , 0.890380859375 , 0.526123046875 , 25.6395604396 , 34.1860805861 , -85.3152625153 , -2.66265869141 , 2.03704833984 , -0.755310058594 
2018/05/16 12:22:48.616568 , 0.05078125 , 0.890380859375 , 0.526123046875 , 25.6395604396 , 34.1860805861 , -85.3152625153 , -2.66265869141 , 2.03704833984 , -0.755310058594 
2018/05/16 12:22:48.909090 , 0.05078125 , 0.890380859375 , 0.526123046875 , 25.6395604396 , 34.1860805861 , -85.3152625153 , -4.86755371094 , 5.08880615234 , -1.41143798828 
2018/05/16 12:22:49.201769 , -0.036865234375 , 0.865478515625 , 0.572021484375 , 24.1401709402 , 34.7858363858 , -85.3152625153 , -4.86755371094 , 5.08880615234 , -1.41143798828 
2018/05/16 12:22:49.494196 , -0.036865234375 , 0.865478515625 , 0.572021484375 , 24.1401709402 , 34.7858363858 , -85.3152625153 , -4.86755371094 , 5.08880615234 , -1.41143798828 
2018/05/16 12:22:49.786654 , -0.036865234375 , 0.865478515625 , 0.572021484375 , 24.1401709402 , 34.7858363858 , -85.3152625153 , -4.86755371094 , 5.08880615234 , -1.41143798828 
2018/05/16 12:22:50.079222 , -0.036865234375 , 0.865478515625 , 0.572021484375 , 25.0398046398 , 34.336019536 , -86.2148962149 , -6.35528564453 , 5.84411621094 , -2.05230712891 
2018/05/16 12:22:50.371717 , -0.002685546875 , 0.8642578125 , 0.56396484375 , 25.0398046398 , 34.336019536 , -86.2148962149 , -6.35528564453 , 5.84411621094 , -2.05230712891 
2018/05/16 12:22:50.664097 , -0.002685546875 , 0.8642578125 , 0.56396484375 , 25.0398046398 , 34.336019536 , -86.2148962149 , -6.35528564453 , 5.84411621094 , -2.05230712891 
2018/05/16 12:22:50.956622 , -0.002685546875 , 0.8642578125 , 0.56396484375 , 25.0398046398 , 34.336019536 , -86.2148962149 , -2.77709960938 , 4.96673583984 , 0.0228881835938 
2018/05/16 12:22:51.249181 , 0.065673828125 , 0.854248046875 , 0.565673828125 , 24.58998779 , 33.7362637363 , -85.915018315 , -2.77709960938 , 4.96673583984 , 0.0228881835938 
2018/05/16 12:22:51.541584 , 0.065673828125 , 0.854248046875 , 0.565673828125 , 24.58998779 , 33.7362637363 , -85.915018315 , -2.77709960938 , 4.96673583984 , 0.0228881835938 
2018/05/16 12:22:51.834028 , 0.065673828125 , 0.854248046875 , 0.565673828125 , 24.58998779 , 33.7362637363 , -85.915018315 , -2.77709960938 , 4.96673583984 , 0.0228881835938 
2018/05/16 12:22:52.126790 , 0.02294921875 , 0.8837890625 , 0.533447265625 , 23.6903540904 , 34.6358974359 , -85.4652014652 , -4.38690185547 , 4.16564941406 , -1.52587890625 
2018/05/16 12:22:52.419051 , 0.02294921875 , 0.8837890625 , 0.533447265625 , 23.6903540904 , 34.6358974359 , -85.4652014652 , -4.38690185547 , 4.16564941406 , -1.52587890625 
2018/05/16 12:22:52.711679 , 0.02294921875 , 0.8837890625 , 0.533447265625 , 23.6903540904 , 34.6358974359 , -85.4652014652 , -4.38690185547 , 4.16564941406 , -1.52587890625 
2018/05/16 12:22:53.004084 , 0.02294921875 , 0.8837890625 , 0.533447265625 , 25.6395604396 , 33.1365079365 , -86.6647130647 , -4.7607421875 , 5.01251220703 , -2.41851806641 
2018/05/16 12:22:53.296757 , 0.077880859375 , 0.89501953125 , 0.49462890625 , 25.6395604396 , 33.1365079365 , -86.6647130647 , -4.7607421875 , 5.01251220703 , -2.41851806641 
2018/05/16 12:22:53.589077 , 0.077880859375 , 0.89501953125 , 0.49462890625 , 25.6395604396 , 33.1365079365 , -86.6647130647 , -4.7607421875 , 5.01251220703 , -2.41851806641 
2018/05/16 12:22:53.881600 , 0.077880859375 , 0.89501953125 , 0.49462890625 , 25.6395604396 , 33.1365079365 , -86.6647130647 , -4.7607421875 , 5.01251220703 , -2.41851806641 
2018/05/16 12:22:54.174310 , -0.0205078125 , 0.81689453125 , 0.53466796875 , 23.5404151404 , 34.485958486 , -85.6151404151 , -3.99780273438 , 4.19616699219 , -2.96020507812 
2018/05/16 12:22:54.466726 , -0.0205078125 , 0.81689453125 , 0.53466796875 , 23.5404151404 , 34.485958486 , -85.6151404151 , -3.99780273438 , 4.19616699219 , -2.96020507812 
2018/05/16 12:22:54.759147 , -0.0205078125 , 0.81689453125 , 0.53466796875 , 23.5404151404 , 34.485958486 , -85.6151404151 , -3.99780273438 , 4.19616699219 , -2.96020507812 
2018/05/16 12:22:55.051726 , -0.0205078125 , 0.81689453125 , 0.53466796875 , 24.1401709402 , 34.1860805861 , -84.5655677656 , -3.14331054688 , 4.69207763672 , -0.900268554688 
2018/05/16 12:22:55.344215 , 0.058349609375 , 0.822998046875 , 0.54736328125 , 24.1401709402 , 34.1860805861 , -84.5655677656 , -3.14331054688 , 4.69207763672 , -0.900268554688 
2018/05/16 12:22:55.637032 , 0.058349609375 , 0.822998046875 , 0.54736328125 , 24.1401709402 , 34.1860805861 , -84.5655677656 , -3.14331054688 , 4.69207763672 , -0.900268554688 
2018/05/16 12:22:55.929215 , 0.058349609375 , 0.822998046875 , 0.54736328125 , 24.1401709402 , 34.1860805861 , -84.5655677656 , -4.28771972656 , 4.50134277344 , -0.579833984375 
2018/05/16 12:22:56.221789 , 0.081298828125 , 0.878173828125 , 0.560546875 , 24.2901098901 , 33.8862026862 , -87.5643467643 , -4.28771972656 , 4.50134277344 , -0.579833984375 
2018/05/16 12:22:56.514253 , 0.081298828125 , 0.878173828125 , 0.560546875 , 24.2901098901 , 33.8862026862 , -87.5643467643 , -4.28771972656 , 4.50134277344 , -0.579833984375 
2018/05/16 12:22:56.806804 , 0.081298828125 , 0.878173828125 , 0.560546875 , 24.2901098901 , 33.8862026862 , -87.5643467643 , -4.28771972656 , 4.50134277344 , -0.579833984375 
2018/05/16 12:22:57.099372 , 0.051025390625 , 0.90625 , 0.521728515625 , 22.6407814408 , 33.5863247863 , -85.4652014652 , -4.76837158203 , 5.79833984375 , -0.358581542969 
2018/05/16 12:22:57.391772 , 0.051025390625 , 0.90625 , 0.521728515625 , 22.6407814408 , 33.5863247863 , -85.4652014652 , -4.76837158203 , 5.79833984375 , -0.358581542969 
2018/05/16 12:22:57.684151 , 0.051025390625 , 0.90625 , 0.521728515625 , 22.6407814408 , 33.5863247863 , -85.4652014652 , -4.76837158203 , 5.79833984375 , -0.358581542969 
2018/05/16 12:22:57.976655 , 0.051025390625 , 0.90625 , 0.521728515625 , 22.6407814408 , 33.5863247863 , -85.4652014652 , -4.39453125 , 5.2490234375 , 0.785827636719 
2018/05/16 12:22:58.269293 , 0.07080078125 , 0.865966796875 , 0.574462890625 , 22.7907203907 , 33.7362637363 , -85.3152625153 , -4.39453125 , 5.2490234375 , 0.785827636719 
2018/05/16 12:22:58.561700 , 0.07080078125 , 0.865966796875 , 0.574462890625 , 22.7907203907 , 33.7362637363 , -85.3152625153 , -4.39453125 , 5.2490234375 , 0.785827636719 
2018/05/16 12:22:58.854212 , 0.07080078125 , 0.865966796875 , 0.574462890625 , 22.7907203907 , 33.7362637363 , -85.3152625153 , -4.39453125 , 5.2490234375 , 0.785827636719 
2018/05/16 12:22:59.146877 , 0.05078125 , 0.83935546875 , 0.552978515625 , 23.8402930403 , 34.485958486 , -84.5655677656 , -4.48608398438 , 3.50952148438 , -1.92260742188 
2018/05/16 12:22:59.439295 , 0.05078125 , 0.83935546875 , 0.552978515625 , 23.8402930403 , 34.485958486 , -84.5655677656 , -4.48608398438 , 3.50952148438 , -1.92260742188 
2018/05/16 12:22:59.731745 , 0.05078125 , 0.83935546875 , 0.552978515625 , 23.8402930403 , 34.485958486 , -84.5655677656 , -4.48608398438 , 3.50952148438 , -1.92260742188 
2018/05/16 12:23:00.024391 , 0.05078125 , 0.83935546875 , 0.552978515625 , 23.9902319902 , 34.336019536 , -85.7650793651 , -2.58636474609 , 3.47900390625 , 0.526428222656 
2018/05/16 12:23:00.316755 , 0.058837890625 , 0.883056640625 , 0.498291015625 , 23.9902319902 , 34.336019536 , -85.7650793651 , -2.58636474609 , 3.47900390625 , 0.526428222656 
2018/05/16 12:23:00.609228 , 0.058837890625 , 0.883056640625 , 0.498291015625 , 23.9902319902 , 34.336019536 , -85.7650793651 , -2.58636474609 , 3.47900390625 , 0.526428222656 
2018/05/16 12:23:00.901703 , 0.058837890625 , 0.883056640625 , 0.498291015625 , 23.9902319902 , 34.336019536 , -85.7650793651 , -4.0283203125 , 4.50134277344 , -1.23596191406 
2018/05/16 12:23:01.194369 , 0.06005859375 , 0.842041015625 , 0.55029296875 , 23.0905982906 , 33.4363858364 , -85.6151404151 , -4.0283203125 , 4.50134277344 , -1.23596191406 
2018/05/16 12:23:01.486931 , 0.06005859375 , 0.842041015625 , 0.55029296875 , 23.0905982906 , 33.4363858364 , -85.6151404151 , -4.0283203125 , 4.50134277344 , -1.23596191406 
2018/05/16 12:23:01.779390 , 0.06005859375 , 0.842041015625 , 0.55029296875 , 23.0905982906 , 33.4363858364 , -85.6151404151 , -4.0283203125 , 4.50134277344 , -1.23596191406 
2018/05/16 12:23:02.071784 , 0.06005859375 , 0.842041015625 , 0.55029296875 , 22.7907203907 , 34.485958486 , -87.2644688645 , -4.18853759766 , 5.20324707031 , 0.877380371094 
2018/05/16 12:23:02.364415 , 0.051513671875 , 0.923828125 , 0.55908203125 , 22.7907203907 , 34.485958486 , -87.2644688645 , -4.18853759766 , 5.20324707031 , 0.877380371094 
2018/05/16 12:23:02.656849 , 0.051513671875 , 0.923828125 , 0.55908203125 , 22.7907203907 , 34.485958486 , -87.2644688645 , -4.18853759766 , 5.20324707031 , 0.877380371094 
2018/05/16 12:23:02.949351 , 0.051513671875 , 0.923828125 , 0.55908203125 , 22.7907203907 , 34.485958486 , -87.2644688645 , -4.02069091797 , 4.66156005859 , -1.57165527344 
2018/05/16 12:23:03.241886 , 0.015380859375 , 0.894287109375 , 0.528076171875 , 22.7907203907 , 34.7858363858 , -85.6151404151 , -4.02069091797 , 4.66156005859 , -1.57165527344 
2018/05/16 12:23:03.534332 , 0.015380859375 , 0.894287109375 , 0.528076171875 , 22.7907203907 , 34.7858363858 , -85.6151404151 , -4.02069091797 , 4.66156005859 , -1.57165527344 
2018/05/16 12:23:03.826909 , 0.015380859375 , 0.894287109375 , 0.528076171875 , 22.7907203907 , 34.7858363858 , -85.6151404151 , -4.02069091797 , 4.66156005859 , -1.57165527344 
2018/05/16 12:23:04.119412 , -0.0126953125 , 0.892822265625 , 0.454345703125 , 24.2901098901 , 33.2864468864 , -85.1653235653 , -5.08117675781 , 5.28717041016 , -0.0381469726562 
2018/05/16 12:23:04.411899 , -0.0126953125 , 0.892822265625 , 0.454345703125 , 24.2901098901 , 33.2864468864 , -85.1653235653 , -5.08117675781 , 5.28717041016 , -0.0381469726562 
2018/05/16 12:23:04.704387 , -0.0126953125 , 0.892822265625 , 0.454345703125 , 24.2901098901 , 33.2864468864 , -85.1653235653 , -5.08117675781 , 5.28717041016 , -0.0381469726562 
2018/05/16 12:23:04.996852 , -0.0126953125 , 0.892822265625 , 0.454345703125 , 23.8402930403 , 34.7858363858 , -86.3648351648 , -3.92913818359 , 5.11932373047 , 0.259399414062 
2018/05/16 12:23:05.289399 , 0.063232421875 , 0.878173828125 , 0.53076171875 , 23.8402930403 , 34.7858363858 , -86.3648351648 , -3.92913818359 , 5.11932373047 , 0.259399414062 
2018/05/16 12:23:05.581910 , 0.063232421875 , 0.878173828125 , 0.53076171875 , 23.8402930403 , 34.7858363858 , -86.3648351648 , -3.92913818359 , 5.11932373047 , 0.259399414062 
2018/05/16 12:23:05.874326 , 0.063232421875 , 0.878173828125 , 0.53076171875 , 23.8402930403 , 34.7858363858 , -86.3648351648 , -3.92913818359 , 5.11932373047 , 0.259399414062 
2018/05/16 12:23:06.167120 , 0.049072265625 , 0.816162109375 , 0.54296875 , 24.8898656899 , 34.485958486 , -86.6647130647 , -5.89752197266 , 6.05773925781 , 0.67138671875 
2018/05/16 12:23:06.459499 , 0.049072265625 , 0.816162109375 , 0.54296875 , 24.8898656899 , 34.485958486 , -86.6647130647 , -5.89752197266 , 6.05773925781 , 0.67138671875 
2018/05/16 12:23:06.751812 , 0.049072265625 , 0.816162109375 , 0.54296875 , 24.8898656899 , 34.485958486 , -86.6647130647 , -5.89752197266 , 6.05773925781 , 0.67138671875 
2018/05/16 12:23:07.044565 , 0.049072265625 , 0.816162109375 , 0.54296875 , 25.6395604396 , 34.485958486 , -85.915018315 , -3.42559814453 , 2.73895263672 , -2.18963623047 
2018/05/16 12:23:07.336903 , -0.001953125 , 0.85400390625 , 0.55419921875 , 25.6395604396 , 34.485958486 , -85.915018315 , -3.42559814453 , 2.73895263672 , -2.18963623047 
2018/05/16 12:23:07.629365 , -0.001953125 , 0.85400390625 , 0.55419921875 , 25.6395604396 , 34.485958486 , -85.915018315 , -3.42559814453 , 2.73895263672 , -2.18963623047 
2018/05/16 12:23:07.921914 , -0.001953125 , 0.85400390625 , 0.55419921875 , 25.6395604396 , 34.485958486 , -85.915018315 , -5.11932373047 , 3.43322753906 , 0.106811523438 
2018/05/16 12:23:08.214534 , 0.047607421875 , 0.8388671875 , 0.552001953125 , 22.9406593407 , 33.8862026862 , -86.5147741148 , -5.11932373047 , 3.43322753906 , 0.106811523438 
2018/05/16 12:23:08.506941 , 0.047607421875 , 0.8388671875 , 0.552001953125 , 22.9406593407 , 33.8862026862 , -86.5147741148 , -5.11932373047 , 3.43322753906 , 0.106811523438 
2018/05/16 12:23:08.799477 , 0.047607421875 , 0.8388671875 , 0.552001953125 , 22.9406593407 , 33.8862026862 , -86.5147741148 , -5.11932373047 , 3.43322753906 , 0.106811523438 
2018/05/16 12:23:09.092070 , 0.0185546875 , 0.8955078125 , 0.535400390625 , 23.5404151404 , 34.1860805861 , -86.3648351648 , -5.21850585938 , 4.638671875 , 0.00762939453125 
2018/05/16 12:23:09.384589 , 0.0185546875 , 0.8955078125 , 0.535400390625 , 23.5404151404 , 34.1860805861 , -86.3648351648 , -5.21850585938 , 4.638671875 , 0.00762939453125 
2018/05/16 12:23:09.676910 , 0.0185546875 , 0.8955078125 , 0.535400390625 , 23.5404151404 , 34.1860805861 , -86.3648351648 , -5.21850585938 , 4.638671875 , 0.00762939453125 
2018/05/16 12:23:09.969440 , 0.0185546875 , 0.8955078125 , 0.535400390625 , 23.5404151404 , 34.1860805861 , -86.3648351648 , -6.05010986328 , 6.68334960938 , -0.625610351562 
2018/05/16 12:23:10.262800 , 0.03759765625 , 0.89892578125 , 0.53125 , 22.4908424908 , 34.7858363858 , -85.6151404151 , -6.05010986328 , 6.68334960938 , -0.625610351562 
2018/05/16 12:23:10.554446 , 0.03759765625 , 0.89892578125 , 0.53125 , 22.4908424908 , 34.7858363858 , -85.6151404151 , -6.05010986328 , 6.68334960938 , -0.625610351562 
2018/05/16 12:23:10.846912 , 0.03759765625 , 0.89892578125 , 0.53125 , 22.4908424908 , 34.7858363858 , -85.6151404151 , -6.05010986328 , 6.68334960938 , -0.625610351562 
2018/05/16 12:23:11.139621 , -0.0283203125 , 0.8974609375 , 0.476318359375 , 24.2901098901 , 34.336019536 , -86.5147741148 , -3.37219238281 , 2.685546875 , -1.73187255859 
2018/05/16 12:23:11.431899 , -0.0283203125 , 0.8974609375 , 0.476318359375 , 24.2901098901 , 34.336019536 , -86.5147741148 , -3.37219238281 , 2.685546875 , -1.73187255859 
2018/05/16 12:23:11.724714 , -0.0283203125 , 0.8974609375 , 0.476318359375 , 24.2901098901 , 34.336019536 , -86.5147741148 , -3.37219238281 , 2.685546875 , -1.73187255859 
2018/05/16 12:23:12.016942 , -0.0283203125 , 0.8974609375 , 0.476318359375 , 23.0905982906 , 34.485958486 , -85.915018315 , -4.638671875 , 4.56237792969 , 1.10626220703 
2018/05/16 12:23:12.309434 , 0.021240234375 , 0.923828125 , 0.544189453125 , 23.0905982906 , 34.485958486 , -85.915018315 , -4.638671875 , 4.56237792969 , 1.10626220703 
2018/05/16 12:23:12.601885 , 0.021240234375 , 0.923828125 , 0.544189453125 , 23.0905982906 , 34.485958486 , -85.915018315 , -4.638671875 , 4.56237792969 , 1.10626220703 
2018/05/16 12:23:12.894382 , 0.021240234375 , 0.923828125 , 0.544189453125 , 23.0905982906 , 34.485958486 , -85.915018315 , -1.98364257812 , 3.11279296875 , 0.640869140625 
2018/05/16 12:23:13.187115 , 0.037353515625 , 0.89794921875 , 0.562744140625 , 22.190964591 , 34.6358974359 , -85.7650793651 , -1.98364257812 , 3.11279296875 , 0.640869140625 
2018/05/16 12:23:13.479416 , 0.037353515625 , 0.89794921875 , 0.562744140625 , 22.190964591 , 34.6358974359 , -85.7650793651 , -1.98364257812 , 3.11279296875 , 0.640869140625 
2018/05/16 12:23:13.772065 , 0.037353515625 , 0.89794921875 , 0.562744140625 , 22.190964591 , 34.6358974359 , -85.7650793651 , -1.98364257812 , 3.11279296875 , 0.640869140625 
2018/05/16 12:23:14.064621 , 0.037353515625 , 0.89794921875 , 0.562744140625 , 25.1897435897 , 34.485958486 , -86.6647130647 , -1.38092041016 , 1.11389160156 , -0.236511230469 
2018/05/16 12:23:14.357059 , 0.031494140625 , 0.875732421875 , 0.512451171875 , 25.1897435897 , 34.485958486 , -86.6647130647 , -1.38092041016 , 1.11389160156 , -0.236511230469 
2018/05/16 12:23:14.649437 , 0.031494140625 , 0.875732421875 , 0.512451171875 , 25.1897435897 , 34.485958486 , -86.6647130647 , -1.38092041016 , 1.11389160156 , -0.236511230469 
2018/05/16 12:23:14.941928 , 0.031494140625 , 0.875732421875 , 0.512451171875 , 25.1897435897 , 34.485958486 , -86.6647130647 , -2.40325927734 , 4.58526611328 , 0.801086425781 
2018/05/16 12:23:15.234481 , 0.041015625 , 0.833984375 , 0.552001953125 , 23.2405372405 , 34.6358974359 , -86.5147741148 , -2.40325927734 , 4.58526611328 , 0.801086425781 
2018/05/16 12:23:15.527022 , 0.041015625 , 0.833984375 , 0.552001953125 , 23.2405372405 , 34.6358974359 , -86.5147741148 , -2.40325927734 , 4.58526611328 , 0.801086425781 
2018/05/16 12:23:15.819428 , 0.041015625 , 0.833984375 , 0.552001953125 , 23.2405372405 , 34.6358974359 , -86.5147741148 , -2.40325927734 , 4.58526611328 , 0.801086425781 
2018/05/16 12:23:16.112167 , 0.069091796875 , 0.861328125 , 0.54931640625 , 23.0905982906 , 34.7858363858 , -85.915018315 , -3.27301025391 , 6.11114501953 , -0.160217285156 
2018/05/16 12:23:16.404547 , 0.069091796875 , 0.861328125 , 0.54931640625 , 23.0905982906 , 34.7858363858 , -85.915018315 , -3.27301025391 , 6.11114501953 , -0.160217285156 
2018/05/16 12:23:16.697155 , 0.069091796875 , 0.861328125 , 0.54931640625 , 23.0905982906 , 34.7858363858 , -85.915018315 , -3.27301025391 , 6.11114501953 , -0.160217285156 
2018/05/16 12:23:16.989459 , 0.069091796875 , 0.861328125 , 0.54931640625 , 24.1401709402 , 34.485958486 , -87.7142857143 , -6.42395019531 , 6.69860839844 , -1.67846679688 
2018/05/16 12:23:17.282202 , 0.0615234375 , 0.856201171875 , 0.521728515625 , 24.1401709402 , 34.485958486 , -87.7142857143 , -6.42395019531 , 6.69860839844 , -1.67846679688 
2018/05/16 12:23:17.574869 , 0.0615234375 , 0.856201171875 , 0.521728515625 , 24.1401709402 , 34.485958486 , -87.7142857143 , -6.42395019531 , 6.69860839844 , -1.67846679688 
2018/05/16 12:23:17.867029 , 0.0615234375 , 0.856201171875 , 0.521728515625 , 24.1401709402 , 34.485958486 , -87.7142857143 , -6.42395019531 , 6.69860839844 , -1.67846679688 
2018/05/16 12:23:18.159982 , 0.031005859375 , 0.9072265625 , 0.50537109375 , 24.1401709402 , 34.485958486 , -87.7142857143 , -4.81414794922 , 4.39453125 , -0.587463378906 
2018/05/16 12:23:18.452174 , 0.031005859375 , 0.9072265625 , 0.50537109375 , 24.1401709402 , 34.485958486 , -87.7142857143 , -4.81414794922 , 4.39453125 , -0.587463378906 
2018/05/16 12:23:18.744590 , 0.031005859375 , 0.9072265625 , 0.50537109375 , 24.1401709402 , 34.485958486 , -87.7142857143 , -4.81414794922 , 4.39453125 , -0.587463378906 
2018/05/16 12:23:19.037065 , 0.031005859375 , 0.9072265625 , 0.50537109375 , 23.6903540904 , 34.9357753358 , -85.1653235653 , -2.44903564453 , 4.72259521484 , 0.8544921875 
2018/05/16 12:23:19.329602 , 0.017578125 , 0.886474609375 , 0.55712890625 , 23.6903540904 , 34.9357753358 , -85.1653235653 , -2.44903564453 , 4.72259521484 , 0.8544921875 
2018/05/16 12:23:19.622193 , 0.017578125 , 0.886474609375 , 0.55712890625 , 23.6903540904 , 34.9357753358 , -85.1653235653 , -2.44903564453 , 4.72259521484 , 0.8544921875 
2018/05/16 12:23:19.914684 , 0.017578125 , 0.886474609375 , 0.55712890625 , 23.6903540904 , 34.9357753358 , -85.1653235653 , -5.86700439453 , 6.21795654297 , -0.869750976562 
2018/05/16 12:23:20.207336 , 0.0322265625 , 0.89892578125 , 0.497802734375 , 23.6903540904 , 34.9357753358 , -85.1653235653 , -5.86700439453 , 6.21795654297 , -0.869750976562 
2018/05/16 12:23:20.499672 , 0.0322265625 , 0.89892578125 , 0.497802734375 , 23.6903540904 , 34.9357753358 , -85.1653235653 , -5.86700439453 , 6.21795654297 , -0.869750976562 
2018/05/16 12:23:20.792205 , 0.0322265625 , 0.89892578125 , 0.497802734375 , 23.6903540904 , 34.9357753358 , -85.1653235653 , -5.86700439453 , 6.21795654297 , -0.869750976562 
2018/05/16 12:23:21.084731 , -0.00927734375 , 0.88720703125 , 0.568359375 , 22.190964591 , 33.2864468864 , -85.7650793651 , -4.59289550781 , 4.01306152344 , 1.60980224609 
2018/05/16 12:23:21.377153 , -0.00927734375 , 0.88720703125 , 0.568359375 , 22.190964591 , 33.2864468864 , -85.7650793651 , -4.59289550781 , 4.01306152344 , 1.60980224609 
2018/05/16 12:23:21.669864 , -0.00927734375 , 0.88720703125 , 0.568359375 , 22.190964591 , 33.2864468864 , -85.7650793651 , -4.59289550781 , 4.01306152344 , 1.60980224609 
2018/05/16 12:23:21.962107 , -0.00927734375 , 0.88720703125 , 0.568359375 , 22.190964591 , 33.2864468864 , -85.7650793651 , -1.88446044922 , 2.91442871094 , 0.823974609375 
2018/05/16 12:23:22.254838 , 0.04736328125 , 0.90234375 , 0.5107421875 , 22.190964591 , 33.2864468864 , -85.7650793651 , -1.88446044922 , 2.91442871094 , 0.823974609375 
2018/05/16 12:23:22.547117 , 0.04736328125 , 0.90234375 , 0.5107421875 , 22.190964591 , 33.2864468864 , -85.7650793651 , -1.88446044922 , 2.91442871094 , 0.823974609375 
2018/05/16 12:23:22.839652 , 0.04736328125 , 0.90234375 , 0.5107421875 , 22.190964591 , 33.2864468864 , -85.7650793651 , -1.88446044922 , 2.91442871094 , 0.823974609375 
2018/05/16 12:23:23.132397 , 0.0625 , 0.87109375 , 0.514404296875 , 23.6903540904 , 34.6358974359 , -85.7650793651 , -3.34167480469 , 3.13568115234 , 0.0686645507812 
2018/05/16 12:23:23.424646 , 0.0625 , 0.87109375 , 0.514404296875 , 23.6903540904 , 34.6358974359 , -85.7650793651 , -3.34167480469 , 3.13568115234 , 0.0686645507812 
2018/05/16 12:23:23.717165 , 0.0625 , 0.87109375 , 0.514404296875 , 23.6903540904 , 34.6358974359 , -85.7650793651 , -3.34167480469 , 3.13568115234 , 0.0686645507812 
2018/05/16 12:23:24.009902 , 0.0625 , 0.87109375 , 0.514404296875 , 23.6903540904 , 34.6358974359 , -85.7650793651 , -5.32531738281 , 5.11169433594 , 0.244140625 
2018/05/16 12:23:24.302289 , -0.015869140625 , 0.893310546875 , 0.571044921875 , 23.6903540904 , 34.6358974359 , -85.7650793651 , -5.32531738281 , 5.11169433594 , 0.244140625 
2018/05/16 12:23:24.594771 , -0.015869140625 , 0.893310546875 , 0.571044921875 , 23.6903540904 , 34.6358974359 , -85.7650793651 , -5.32531738281 , 5.11169433594 , 0.244140625 
2018/05/16 12:23:24.887241 , -0.015869140625 , 0.893310546875 , 0.571044921875 , 23.6903540904 , 34.6358974359 , -85.7650793651 , -5.32531738281 , 5.11169433594 , 0.244140625 
2018/05/16 12:23:25.179901 , 0.045654296875 , 0.867431640625 , 0.513427734375 , 23.6903540904 , 34.6358974359 , -85.7650793651 , -6.61468505859 , 5.41687011719 , -1.08337402344 
2018/05/16 12:23:25.472278 , 0.045654296875 , 0.867431640625 , 0.513427734375 , 23.6903540904 , 34.6358974359 , -85.7650793651 , -6.61468505859 , 5.41687011719 , -1.08337402344 
2018/05/16 12:23:25.764839 , 0.045654296875 , 0.867431640625 , 0.513427734375 , 23.6903540904 , 34.6358974359 , -85.7650793651 , -6.61468505859 , 5.41687011719 , -1.08337402344 
2018/05/16 12:23:26.057509 , 0.045654296875 , 0.867431640625 , 0.513427734375 , 22.6407814408 , 33.5863247863 , -84.7155067155 , -9.09423828125 , 7.11059570312 , 0.0228881835938 
2018/05/16 12:23:26.349959 , 0.040771484375 , 0.87939453125 , 0.606689453125 , 22.6407814408 , 33.5863247863 , -84.7155067155 , -9.09423828125 , 7.11059570312 , 0.0228881835938 
2018/05/16 12:23:26.642372 , 0.040771484375 , 0.87939453125 , 0.606689453125 , 22.6407814408 , 33.5863247863 , -84.7155067155 , -9.09423828125 , 7.11059570312 , 0.0228881835938 
2018/05/16 12:23:26.934845 , 0.040771484375 , 0.87939453125 , 0.606689453125 , 22.6407814408 , 33.5863247863 , -84.7155067155 , -3.30352783203 , 5.51605224609 , 0.663757324219 
2018/05/16 12:23:27.227593 , 0.0224609375 , 0.8837890625 , 0.5087890625 , 23.5404151404 , 34.485958486 , -85.915018315 , -3.30352783203 , 5.51605224609 , 0.663757324219 
2018/05/16 12:23:27.519872 , 0.0224609375 , 0.8837890625 , 0.5087890625 , 23.5404151404 , 34.485958486 , -85.915018315 , -3.30352783203 , 5.51605224609 , 0.663757324219 
2018/05/16 12:23:27.812395 , 0.0224609375 , 0.8837890625 , 0.5087890625 , 23.5404151404 , 34.485958486 , -85.915018315 , -3.30352783203 , 5.51605224609 , 0.663757324219 
2018/05/16 12:23:28.104950 , 0.025146484375 , 0.86572265625 , 0.498046875 , 23.5404151404 , 34.485958486 , -85.915018315 , -3.49426269531 , 5.05065917969 , 1.12152099609 
2018/05/16 12:23:28.397438 , 0.025146484375 , 0.86572265625 , 0.498046875 , 23.5404151404 , 34.485958486 , -85.915018315 , -3.49426269531 , 5.05065917969 , 1.12152099609 
2018/05/16 12:23:28.689922 , 0.025146484375 , 0.86572265625 , 0.498046875 , 23.5404151404 , 34.485958486 , -85.915018315 , -3.49426269531 , 5.05065917969 , 1.12152099609 
2018/05/16 12:23:28.982490 , 0.025146484375 , 0.86572265625 , 0.498046875 , 23.5404151404 , 34.485958486 , -85.915018315 , -4.95147705078 , 4.92858886719 , -2.96783447266 
2018/05/16 12:23:29.275072 , 0.08642578125 , 0.86865234375 , 0.5458984375 , 23.5404151404 , 34.485958486 , -85.915018315 , -4.95147705078 , 4.92858886719 , -2.96783447266 
2018/05/16 12:23:29.567606 , 0.08642578125 , 0.86865234375 , 0.5458984375 , 23.5404151404 , 34.485958486 , -85.915018315 , -4.95147705078 , 4.92858886719 , -2.96783447266 
2018/05/16 12:23:29.860030 , 0.08642578125 , 0.86865234375 , 0.5458984375 , 23.5404151404 , 34.485958486 , -85.915018315 , -4.95147705078 , 4.92858886719 , -2.96783447266 
2018/05/16 12:23:30.152892 , 0.065185546875 , 0.898193359375 , 0.55908203125 , 23.0905982906 , 33.4363858364 , -86.3648351648 , -4.91333007812 , 2.75421142578 , -0.6103515625 
2018/05/16 12:23:30.445292 , 0.065185546875 , 0.898193359375 , 0.55908203125 , 23.0905982906 , 33.4363858364 , -86.3648351648 , -4.91333007812 , 2.75421142578 , -0.6103515625 
2018/05/16 12:23:30.737600 , 0.065185546875 , 0.898193359375 , 0.55908203125 , 23.0905982906 , 33.4363858364 , -86.3648351648 , -4.91333007812 , 2.75421142578 , -0.6103515625 
2018/05/16 12:23:31.030267 , 0.065185546875 , 0.898193359375 , 0.55908203125 , 25.3396825397 , 34.6358974359 , -86.5147741148 , -4.30297851562 , 5.40161132812 , -1.13677978516 
2018/05/16 12:23:31.322712 , 0.0146484375 , 0.8896484375 , 0.525390625 , 25.3396825397 , 34.6358974359 , -86.5147741148 , -4.30297851562 , 5.40161132812 , -1.13677978516 
2018/05/16 12:23:31.615109 , 0.0146484375 , 0.8896484375 , 0.525390625 , 25.3396825397 , 34.6358974359 , -86.5147741148 , -4.30297851562 , 5.40161132812 , -1.13677978516 
2018/05/16 12:23:31.907633 , 0.0146484375 , 0.8896484375 , 0.525390625 , 25.3396825397 , 34.6358974359 , -86.5147741148 , -1.86157226562 , 5.32531738281 , -1.16729736328 
2018/05/16 12:23:32.200379 , 0.029541015625 , 0.891845703125 , 0.549560546875 , 25.1897435897 , 33.7362637363 , -85.0153846154 , -1.86157226562 , 5.32531738281 , -1.16729736328 
2018/05/16 12:23:32.638974 , 0.029541015625 , 0.891845703125 , 0.549560546875 , 25.1897435897 , 33.7362637363 , -85.0153846154 , -1.86157226562 , 5.32531738281 , -1.16729736328 
2018/05/16 12:23:32.931494 , 0.029541015625 , 0.891845703125 , 0.549560546875 , 25.1897435897 , 33.7362637363 , -85.0153846154 , -5.35583496094 , 5.56945800781 , 0.3662109375 
2018/05/16 12:23:33.224063 , -0.03662109375 , 0.88232421875 , 0.552978515625 , 23.9902319902 , 34.336019536 , -85.7650793651 , -5.35583496094 , 5.56945800781 , 0.3662109375 
2018/05/16 12:23:33.516558 , -0.03662109375 , 0.88232421875 , 0.552978515625 , 23.9902319902 , 34.336019536 , -85.7650793651 , -5.35583496094 , 5.56945800781 , 0.3662109375 
2018/05/16 12:23:33.808998 , -0.03662109375 , 0.88232421875 , 0.552978515625 , 23.9902319902 , 34.336019536 , -85.7650793651 , -5.35583496094 , 5.56945800781 , 0.3662109375 
2018/05/16 12:23:34.101504 , -0.0009765625 , 0.89208984375 , 0.499267578125 , 22.9406593407 , 34.336019536 , -87.5643467643 , -2.38800048828 , 4.19616699219 , 1.05285644531 
2018/05/16 12:23:34.393978 , -0.0009765625 , 0.89208984375 , 0.499267578125 , 22.9406593407 , 34.336019536 , -87.5643467643 , -2.38800048828 , 4.19616699219 , 1.05285644531 
2018/05/16 12:23:34.686782 , -0.0009765625 , 0.89208984375 , 0.499267578125 , 22.9406593407 , 34.336019536 , -87.5643467643 , -2.38800048828 , 4.19616699219 , 1.05285644531 
2018/05/16 12:23:34.979292 , -0.0009765625 , 0.89208984375 , 0.499267578125 , 22.9406593407 , 34.336019536 , -87.5643467643 , -6.01196289062 , 7.6904296875 , 1.05285644531 
2018/05/16 12:23:35.272075 , -0.005859375 , 0.86865234375 , 0.538330078125 , 23.6903540904 , 33.8862026862 , -85.4652014652 , -6.01196289062 , 7.6904296875 , 1.05285644531 
2018/05/16 12:23:35.563714 , -0.005859375 , 0.86865234375 , 0.538330078125 , 23.6903540904 , 33.8862026862 , -85.4652014652 , -6.01196289062 , 7.6904296875 , 1.05285644531 
2018/05/16 12:23:35.856356 , -0.005859375 , 0.86865234375 , 0.538330078125 , 23.6903540904 , 33.8862026862 , -85.4652014652 , -6.01196289062 , 7.6904296875 , 1.05285644531 
2018/05/16 12:23:36.149310 , 0.080322265625 , 0.84619140625 , 0.609619140625 , 23.9902319902 , 34.9357753358 , -86.2148962149 , -3.76892089844 , 6.47735595703 , -0.0534057617188 
2018/05/16 12:23:36.441722 , 0.080322265625 , 0.84619140625 , 0.609619140625 , 23.9902319902 , 34.9357753358 , -86.2148962149 , -3.76892089844 , 6.47735595703 , -0.0534057617188 
2018/05/16 12:23:36.734071 , 0.080322265625 , 0.84619140625 , 0.609619140625 , 23.9902319902 , 34.9357753358 , -86.2148962149 , -3.76892089844 , 6.47735595703 , -0.0534057617188 
2018/05/16 12:23:37.026683 , 0.080322265625 , 0.84619140625 , 0.609619140625 , 22.6407814408 , 34.336019536 , -85.1653235653 , -3.86810302734 , 5.42449951172 , -0.663757324219 
2018/05/16 12:23:37.319079 , 0.0244140625 , 0.90869140625 , 0.5087890625 , 22.6407814408 , 34.336019536 , -85.1653235653 , -3.86810302734 , 5.42449951172 , -0.663757324219 
2018/05/16 12:23:37.611591 , 0.0244140625 , 0.90869140625 , 0.5087890625 , 22.6407814408 , 34.336019536 , -85.1653235653 , -3.86810302734 , 5.42449951172 , -0.663757324219 
2018/05/16 12:23:37.904100 , 0.0244140625 , 0.90869140625 , 0.5087890625 , 22.6407814408 , 34.336019536 , -85.1653235653 , -3.14331054688 , 3.34930419922 , -1.70135498047 
2018/05/16 12:23:38.196883 , 0.013916015625 , 0.92041015625 , 0.503662109375 , 23.6903540904 , 33.8862026862 , -86.5147741148 , -3.14331054688 , 3.34930419922 , -1.70135498047 
2018/05/16 12:23:38.489181 , 0.013916015625 , 0.92041015625 , 0.503662109375 , 23.6903540904 , 33.8862026862 , -86.5147741148 , -3.14331054688 , 3.34930419922 , -1.70135498047 
2018/05/16 12:23:38.781734 , 0.013916015625 , 0.92041015625 , 0.503662109375 , 23.6903540904 , 33.8862026862 , -86.5147741148 , -3.14331054688 , 3.34930419922 , -1.70135498047 
2018/05/16 12:23:39.074312 , 0.013916015625 , 0.92041015625 , 0.503662109375 , 22.6407814408 , 33.5863247863 , -84.4156288156 , -3.38745117188 , 4.09698486328 , -0.3662109375 
2018/05/16 12:23:39.366684 , 0.00439453125 , 0.869873046875 , 0.552001953125 , 22.6407814408 , 33.5863247863 , -84.4156288156 , -3.38745117188 , 4.09698486328 , -0.3662109375 
2018/05/16 12:23:39.659273 , 0.00439453125 , 0.869873046875 , 0.552001953125 , 22.6407814408 , 33.5863247863 , -84.4156288156 , -3.38745117188 , 4.09698486328 , -0.3662109375 
2018/05/16 12:23:39.951679 , 0.00439453125 , 0.869873046875 , 0.552001953125 , 22.6407814408 , 33.5863247863 , -84.4156288156 , -3.11279296875 , 5.82122802734 , -3.09753417969 
2018/05/16 12:23:40.244340 , 0.039794921875 , 0.8916015625 , 0.565673828125 , 23.8402930403 , 33.7362637363 , -85.6151404151 , -3.11279296875 , 5.82122802734 , -3.09753417969 
2018/05/16 12:23:40.537011 , 0.039794921875 , 0.8916015625 , 0.565673828125 , 23.8402930403 , 33.7362637363 , -85.6151404151 , -3.11279296875 , 5.82122802734 , -3.09753417969 
2018/05/16 12:23:40.829237 , 0.039794921875 , 0.8916015625 , 0.565673828125 , 23.8402930403 , 33.7362637363 , -85.6151404151 , -3.11279296875 , 5.82122802734 , -3.09753417969 
2018/05/16 12:23:41.121719 , 0.097900390625 , 0.90966796875 , 0.54296875 , 25.0398046398 , 33.5863247863 , -88.1641025641 , -3.08227539062 , 4.25720214844 , -0.953674316406 
2018/05/16 12:23:41.414323 , 0.097900390625 , 0.90966796875 , 0.54296875 , 25.0398046398 , 33.5863247863 , -88.1641025641 , -3.08227539062 , 4.25720214844 , -0.953674316406 
2018/05/16 12:23:41.706828 , 0.097900390625 , 0.90966796875 , 0.54296875 , 25.0398046398 , 33.5863247863 , -88.1641025641 , -3.08227539062 , 4.25720214844 , -0.953674316406 
2018/05/16 12:23:41.999371 , 0.097900390625 , 0.90966796875 , 0.54296875 , 24.2901098901 , 32.8366300366 , -86.2148962149 , -5.31005859375 , 6.26373291016 , -1.17492675781 
2018/05/16 12:23:42.291862 , 0.060546875 , 0.8642578125 , 0.4951171875 , 24.2901098901 , 32.8366300366 , -86.2148962149 , -5.31005859375 , 6.26373291016 , -1.17492675781 
2018/05/16 12:23:42.584287 , 0.060546875 , 0.8642578125 , 0.4951171875 , 24.2901098901 , 32.8366300366 , -86.2148962149 , -5.31005859375 , 6.26373291016 , -1.17492675781 
2018/05/16 12:23:42.876938 , 0.060546875 , 0.8642578125 , 0.4951171875 , 24.2901098901 , 32.8366300366 , -86.2148962149 , -5.31005859375 , 6.26373291016 , -1.17492675781 
2018/05/16 12:23:43.169310 , 0.031005859375 , 0.898681640625 , 0.519775390625 , 23.2405372405 , 33.8862026862 , -86.2148962149 , -5.69915771484 , 4.83703613281 , -0.160217285156 
2018/05/16 12:23:43.461822 , 0.031005859375 , 0.898681640625 , 0.519775390625 , 23.2405372405 , 33.8862026862 , -86.2148962149 , -5.69915771484 , 4.83703613281 , -0.160217285156 
2018/05/16 12:23:43.803088 , 0.031005859375 , 0.898681640625 , 0.519775390625 , 23.2405372405 , 33.8862026862 , -86.2148962149 , -5.69915771484 , 4.83703613281 , -0.160217285156 
2018/05/16 12:23:44.095811 , -0.00390625 , 0.83154296875 , 0.515625 , 22.9406593407 , 34.6358974359 , -85.1653235653 , -4.08935546875 , 6.17980957031 , -0.0762939453125 
2018/05/16 12:23:44.388317 , -0.00390625 , 0.83154296875 , 0.515625 , 22.9406593407 , 34.6358974359 , -85.1653235653 , -4.08935546875 , 6.17980957031 , -0.0762939453125 
2018/05/16 12:23:44.680706 , -0.00390625 , 0.83154296875 , 0.515625 , 22.9406593407 , 34.6358974359 , -85.1653235653 , -4.08935546875 , 6.17980957031 , -0.0762939453125 
2018/05/16 12:23:44.973219 , -0.00390625 , 0.83154296875 , 0.515625 , 22.9406593407 , 34.6358974359 , -85.1653235653 , -1.88446044922 , 2.99835205078 , 1.19781494141 
2018/05/16 12:23:45.265761 , -0.007080078125 , 0.872314453125 , 0.582763671875 , 21.5912087912 , 34.9357753358 , -85.7650793651 , -1.88446044922 , 2.99835205078 , 1.19781494141 
2018/05/16 12:23:45.558213 , -0.007080078125 , 0.872314453125 , 0.582763671875 , 21.5912087912 , 34.9357753358 , -85.7650793651 , -1.88446044922 , 2.99835205078 , 1.19781494141 
2018/05/16 12:23:45.850699 , -0.007080078125 , 0.872314453125 , 0.582763671875 , 21.5912087912 , 34.9357753358 , -85.7650793651 , -1.88446044922 , 2.99835205078 , 1.19781494141 
2018/05/16 12:23:46.143396 , 0.0673828125 , 0.838623046875 , 0.56396484375 , 23.5404151404 , 34.485958486 , -86.3648351648 , -4.83703613281 , 4.78363037109 , -1.23596191406 
2018/05/16 12:23:46.435680 , 0.0673828125 , 0.838623046875 , 0.56396484375 , 23.5404151404 , 34.485958486 , -86.3648351648 , -4.83703613281 , 4.78363037109 , -1.23596191406 
2018/05/16 12:23:46.728359 , 0.0673828125 , 0.838623046875 , 0.56396484375 , 23.5404151404 , 34.485958486 , -86.3648351648 , -4.83703613281 , 4.78363037109 , -1.23596191406 
2018/05/16 12:23:47.020771 , 0.0673828125 , 0.838623046875 , 0.56396484375 , 23.5404151404 , 35.8354090354 , -85.915018315 , -5.33294677734 , 4.06646728516 , 0.00762939453125 
2018/05/16 12:23:47.313257 , -0.021484375 , 0.87109375 , 0.515625 , 23.5404151404 , 35.8354090354 , -85.915018315 , -5.33294677734 , 4.06646728516 , 0.00762939453125 
2018/05/16 12:23:47.605758 , -0.021484375 , 0.87109375 , 0.515625 , 23.5404151404 , 35.8354090354 , -85.915018315 , -5.33294677734 , 4.06646728516 , 0.00762939453125 
2018/05/16 12:23:47.898221 , -0.021484375 , 0.87109375 , 0.515625 , 23.5404151404 , 35.8354090354 , -85.915018315 , -4.71496582031 , 4.67681884766 , -0.137329101562 
2018/05/16 12:23:48.190921 , 0.070556640625 , 0.853271484375 , 0.49609375 , 23.9902319902 , 33.5863247863 , -84.7155067155 , -4.71496582031 , 4.67681884766 , -0.137329101562 
2018/05/16 12:23:48.483434 , 0.070556640625 , 0.853271484375 , 0.49609375 , 23.9902319902 , 33.5863247863 , -84.7155067155 , -4.71496582031 , 4.67681884766 , -0.137329101562 
2018/05/16 12:23:48.775824 , 0.070556640625 , 0.853271484375 , 0.49609375 , 23.9902319902 , 33.5863247863 , -84.7155067155 , -4.71496582031 , 4.67681884766 , -0.137329101562 
2018/05/16 12:23:49.068286 , 0.070556640625 , 0.853271484375 , 0.49609375 , 22.9406593407 , 33.8862026862 , -86.5147741148 , -3.89099121094 , 3.96728515625 , -0.335693359375 
2018/05/16 12:23:49.360848 , 0.03515625 , 0.8330078125 , 0.5048828125 , 22.9406593407 , 33.8862026862 , -86.5147741148 , -3.89099121094 , 3.96728515625 , -0.335693359375 
2018/05/16 12:23:49.653422 , 0.03515625 , 0.8330078125 , 0.5048828125 , 22.9406593407 , 33.8862026862 , -86.5147741148 , -3.89099121094 , 3.96728515625 , -0.335693359375 
2018/05/16 12:23:49.945828 , 0.03515625 , 0.8330078125 , 0.5048828125 , 22.9406593407 , 33.8862026862 , -86.5147741148 , -5.27954101562 , 4.98962402344 , -1.50299072266 
2018/05/16 12:23:50.238580 , 0.001220703125 , 0.834228515625 , 0.508056640625 , 24.7399267399 , 34.9357753358 , -85.7650793651 , -5.27954101562 , 4.98962402344 , -1.50299072266 
2018/05/16 12:23:50.530888 , 0.001220703125 , 0.834228515625 , 0.508056640625 , 24.7399267399 , 34.9357753358 , -85.7650793651 , -5.27954101562 , 4.98962402344 , -1.50299072266 
2018/05/16 12:23:50.823511 , 0.001220703125 , 0.834228515625 , 0.508056640625 , 24.7399267399 , 34.9357753358 , -85.7650793651 , -5.27954101562 , 4.98962402344 , -1.50299072266 
2018/05/16 12:23:51.116017 , 0.0185546875 , 0.892333984375 , 0.561767578125 , 23.2405372405 , 33.5863247863 , -86.2148962149 , -4.28771972656 , 3.99780273438 , -0.8544921875 
2018/05/16 12:23:51.408521 , 0.0185546875 , 0.892333984375 , 0.561767578125 , 23.2405372405 , 33.5863247863 , -86.2148962149 , -4.28771972656 , 3.99780273438 , -0.8544921875 
2018/05/16 12:23:51.700956 , 0.0185546875 , 0.892333984375 , 0.561767578125 , 23.2405372405 , 33.5863247863 , -86.2148962149 , -4.28771972656 , 3.99780273438 , -0.8544921875 
2018/05/16 12:23:51.993474 , 0.0185546875 , 0.892333984375 , 0.561767578125 , 24.58998779 , 32.6866910867 , -86.3648351648 , -4.28771972656 , 5.16510009766 , 0.808715820312 
2018/05/16 12:23:52.285983 , -0.0087890625 , 0.91552734375 , 0.572998046875 , 24.58998779 , 32.6866910867 , -86.3648351648 , -4.28771972656 , 5.16510009766 , 0.808715820312 
2018/05/16 12:23:52.578400 , -0.0087890625 , 0.91552734375 , 0.572998046875 , 24.58998779 , 32.6866910867 , -86.3648351648 , -4.28771972656 , 5.16510009766 , 0.808715820312 
2018/05/16 12:23:52.871081 , -0.0087890625 , 0.91552734375 , 0.572998046875 , 24.58998779 , 32.6866910867 , -86.3648351648 , -4.28771972656 , 5.16510009766 , 0.808715820312 
2018/05/16 12:23:53.163655 , -0.0263671875 , 0.853759765625 , 0.54541015625 , 22.7907203907 , 34.7858363858 , -85.3152625153 , -4.83703613281 , 6.01959228516 , -0.511169433594 
2018/05/16 12:23:53.455929 , -0.0263671875 , 0.853759765625 , 0.54541015625 , 22.7907203907 , 34.7858363858 , -85.3152625153 , -4.83703613281 , 6.01959228516 , -0.511169433594 
2018/05/16 12:23:53.748463 , -0.0263671875 , 0.853759765625 , 0.54541015625 , 22.7907203907 , 34.7858363858 , -85.3152625153 , -4.83703613281 , 6.01959228516 , -0.511169433594 
2018/05/16 12:23:54.041132 , -0.0263671875 , 0.853759765625 , 0.54541015625 , 24.7399267399 , 33.2864468864 , -86.5147741148 , -2.685546875 , 3.48663330078 , -0.358581542969 
2018/05/16 12:23:54.333491 , -0.0107421875 , 0.912109375 , 0.51220703125 , 24.7399267399 , 33.2864468864 , -86.5147741148 , -2.685546875 , 3.48663330078 , -0.358581542969 
2018/05/16 12:23:54.625970 , -0.0107421875 , 0.912109375 , 0.51220703125 , 24.7399267399 , 33.2864468864 , -86.5147741148 , -2.685546875 , 3.48663330078 , -0.358581542969 
2018/05/16 12:23:54.918472 , -0.0107421875 , 0.912109375 , 0.51220703125 , 24.7399267399 , 33.2864468864 , -86.5147741148 , -7.04193115234 , 4.83703613281 , 0.564575195312 
2018/05/16 12:23:55.211179 , 0.0244140625 , 0.8720703125 , 0.56982421875 , 23.8402930403 , 34.1860805861 , -85.6151404151 , -7.04193115234 , 4.83703613281 , 0.564575195312 
2018/05/16 12:23:55.503462 , 0.0244140625 , 0.8720703125 , 0.56982421875 , 23.8402930403 , 34.1860805861 , -85.6151404151 , -7.04193115234 , 4.83703613281 , 0.564575195312 
2018/05/16 12:23:55.796080 , 0.0244140625 , 0.8720703125 , 0.56982421875 , 23.8402930403 , 34.1860805861 , -85.6151404151 , -7.04193115234 , 4.83703613281 , 0.564575195312 
2018/05/16 12:23:56.088694 , 0.02001953125 , 0.88232421875 , 0.508056640625 , 23.8402930403 , 33.4363858364 , -86.3648351648 , -4.20379638672 , 4.73022460938 , 0.968933105469 
2018/05/16 12:23:56.381208 , 0.02001953125 , 0.88232421875 , 0.508056640625 , 23.8402930403 , 33.4363858364 , -86.3648351648 , -4.20379638672 , 4.73022460938 , 0.968933105469 
2018/05/16 12:23:56.673525 , 0.02001953125 , 0.88232421875 , 0.508056640625 , 23.8402930403 , 33.4363858364 , -86.3648351648 , -4.20379638672 , 4.73022460938 , 0.968933105469 
2018/05/16 12:23:56.966066 , 0.02001953125 , 0.88232421875 , 0.508056640625 , 23.8402930403 , 33.4363858364 , -86.3648351648 , -2.99835205078 , 4.21142578125 , 1.37329101562 
2018/05/16 12:23:57.258615 , 0.01416015625 , 0.877197265625 , 0.545654296875 , 23.0905982906 , 33.4363858364 , -84.2656898657 , -2.99835205078 , 4.21142578125 , 1.37329101562 
2018/05/16 12:23:57.551057 , 0.01416015625 , 0.877197265625 , 0.545654296875 , 23.0905982906 , 33.4363858364 , -84.2656898657 , -2.99835205078 , 4.21142578125 , 1.37329101562 
2018/05/16 12:23:57.843735 , 0.01416015625 , 0.877197265625 , 0.545654296875 , 23.0905982906 , 33.4363858364 , -84.2656898657 , -2.99835205078 , 4.21142578125 , 1.37329101562 
2018/05/16 12:23:58.136060 , 0.067138671875 , 0.80419921875 , 0.538330078125 , 23.2405372405 , 36.1352869353 , -85.7650793651 , -4.17327880859 , 3.99780273438 , -2.77709960938 
2018/05/16 12:23:58.428567 , 0.067138671875 , 0.80419921875 , 0.538330078125 , 23.2405372405 , 36.1352869353 , -85.7650793651 , -4.17327880859 , 3.99780273438 , -2.77709960938 
2018/05/16 12:23:58.721084 , 0.067138671875 , 0.80419921875 , 0.538330078125 , 23.2405372405 , 36.1352869353 , -85.7650793651 , -4.17327880859 , 3.99780273438 , -2.77709960938 
2018/05/16 12:23:59.013631 , 0.067138671875 , 0.80419921875 , 0.538330078125 , 23.2405372405 , 36.1352869353 , -85.7650793651 , -6.72149658203 , 7.24792480469 , 0.06103515625 
2018/05/16 12:23:59.306087 , 0.0859375 , 0.874267578125 , 0.538330078125 , 23.2405372405 , 36.1352869353 , -85.7650793651 , -6.72149658203 , 7.24792480469 , 0.06103515625 
2018/05/16 12:23:59.598559 , 0.0859375 , 0.874267578125 , 0.538330078125 , 23.2405372405 , 36.1352869353 , -85.7650793651 , -6.72149658203 , 7.24792480469 , 0.06103515625 
2018/05/16 12:23:59.891225 , 0.0859375 , 0.874267578125 , 0.538330078125 , 23.2405372405 , 36.1352869353 , -85.7650793651 , -3.45611572266 , 2.79235839844 , -0.823974609375 
2018/05/16 12:24:00.183833 , 0.002197265625 , 0.918212890625 , 0.55615234375 , 24.7399267399 , 33.8862026862 , -86.2148962149 , -3.45611572266 , 2.79235839844 , -0.823974609375 
2018/05/16 12:24:00.476172 , 0.002197265625 , 0.918212890625 , 0.55615234375 , 24.7399267399 , 33.8862026862 , -86.2148962149 , -3.45611572266 , 2.79235839844 , -0.823974609375 
2018/05/16 12:24:00.768688 , 0.002197265625 , 0.918212890625 , 0.55615234375 , 24.7399267399 , 33.8862026862 , -86.2148962149 , -3.45611572266 , 2.79235839844 , -0.823974609375 
2018/05/16 12:24:01.061225 , 0.002197265625 , 0.918212890625 , 0.55615234375 , 24.7399267399 , 33.8862026862 , -86.2148962149 , -1.59454345703 , 2.55584716797 , 0.724792480469 
2018/05/16 12:24:01.353652 , -0.0126953125 , 0.867919921875 , 0.568359375 , 24.7399267399 , 33.8862026862 , -86.2148962149 , -1.59454345703 , 2.55584716797 , 0.724792480469 
2018/05/16 12:24:01.646155 , -0.0126953125 , 0.867919921875 , 0.568359375 , 24.7399267399 , 33.8862026862 , -86.2148962149 , -1.59454345703 , 2.55584716797 , 0.724792480469 
2018/05/16 12:24:01.938678 , -0.0126953125 , 0.867919921875 , 0.568359375 , 24.7399267399 , 33.8862026862 , -86.2148962149 , -3.21960449219 , 2.41851806641 , -0.701904296875 
2018/05/16 12:24:02.231370 , 0.044189453125 , 0.87646484375 , 0.536865234375 , 22.190964591 , 34.6358974359 , -84.7155067155 , -3.21960449219 , 2.41851806641 , -0.701904296875 
2018/05/16 12:24:02.523721 , 0.044189453125 , 0.87646484375 , 0.536865234375 , 22.190964591 , 34.6358974359 , -84.7155067155 , -3.21960449219 , 2.41851806641 , -0.701904296875 
2018/05/16 12:24:02.816419 , 0.044189453125 , 0.87646484375 , 0.536865234375 , 22.190964591 , 34.6358974359 , -84.7155067155 , -3.21960449219 , 2.41851806641 , -0.701904296875 
2018/05/16 12:24:03.108866 , 0.050537109375 , 0.892822265625 , 0.51806640625 , 22.190964591 , 34.6358974359 , -84.7155067155 , -6.55364990234 , 7.42340087891 , -1.41143798828 
2018/05/16 12:24:03.401393 , 0.050537109375 , 0.892822265625 , 0.51806640625 , 22.190964591 , 34.6358974359 , -84.7155067155 , -6.55364990234 , 7.42340087891 , -1.41143798828 
2018/05/16 12:24:03.693672 , 0.050537109375 , 0.892822265625 , 0.51806640625 , 22.190964591 , 34.6358974359 , -84.7155067155 , -6.55364990234 , 7.42340087891 , -1.41143798828 
2018/05/16 12:24:03.986222 , 0.050537109375 , 0.892822265625 , 0.51806640625 , 22.6407814408 , 33.5863247863 , -85.4652014652 , -4.37927246094 , 4.94384765625 , 0.06103515625 
2018/05/16 12:24:04.278945 , 0.031982421875 , 0.888671875 , 0.494873046875 , 22.6407814408 , 33.5863247863 , -85.4652014652 , -4.37927246094 , 4.94384765625 , 0.06103515625 
2018/05/16 12:24:04.571337 , 0.031982421875 , 0.888671875 , 0.494873046875 , 22.6407814408 , 33.5863247863 , -85.4652014652 , -4.37927246094 , 4.94384765625 , 0.06103515625 
2018/05/16 12:24:04.863808 , 0.031982421875 , 0.888671875 , 0.494873046875 , 22.6407814408 , 33.5863247863 , -85.4652014652 , -4.37927246094 , 4.94384765625 , 0.06103515625 
2018/05/16 12:24:05.156323 , 0.018310546875 , 0.876708984375 , 0.52978515625 , 22.6407814408 , 33.5863247863 , -85.4652014652 , -4.50134277344 , 5.13458251953 , -1.04522705078 
2018/05/16 12:24:05.448779 , 0.018310546875 , 0.876708984375 , 0.52978515625 , 22.6407814408 , 33.5863247863 , -85.4652014652 , -4.50134277344 , 5.13458251953 , -1.04522705078 
2018/05/16 12:24:05.741420 , 0.018310546875 , 0.876708984375 , 0.52978515625 , 22.6407814408 , 33.5863247863 , -85.4652014652 , -4.50134277344 , 5.13458251953 , -1.04522705078 
2018/05/16 12:24:06.033816 , 0.018310546875 , 0.876708984375 , 0.52978515625 , 22.6407814408 , 33.5863247863 , -85.4652014652 , -5.47790527344 , 6.35528564453 , -0.534057617188 
2018/05/16 12:24:06.326319 , -0.001953125 , 0.877685546875 , 0.509765625 , 22.6407814408 , 33.5863247863 , -85.4652014652 , -5.47790527344 , 6.35528564453 , -0.534057617188 
2018/05/16 12:24:06.618764 , -0.001953125 , 0.877685546875 , 0.509765625 , 22.6407814408 , 33.5863247863 , -85.4652014652 , -5.47790527344 , 6.35528564453 , -0.534057617188 
2018/05/16 12:24:06.911292 , -0.001953125 , 0.877685546875 , 0.509765625 , 22.6407814408 , 33.5863247863 , -85.4652014652 , -4.00543212891 , 3.30352783203 , -0.801086425781 
2018/05/16 12:24:07.203960 , -0.0048828125 , 0.8798828125 , 0.5341796875 , 22.190964591 , 35.3855921856 , -87.8642246642 , -4.00543212891 , 3.30352783203 , -0.801086425781 
2018/05/16 12:24:07.496280 , -0.0048828125 , 0.8798828125 , 0.5341796875 , 22.190964591 , 35.3855921856 , -87.8642246642 , -4.00543212891 , 3.30352783203 , -0.801086425781 
2018/05/16 12:24:07.788484 , -0.0048828125 , 0.8798828125 , 0.5341796875 , 22.190964591 , 35.3855921856 , -87.8642246642 , -4.00543212891 , 3.30352783203 , -0.801086425781 
2018/05/16 12:24:08.081031 , 0.0556640625 , 0.88720703125 , 0.560546875 , 23.5404151404 , 34.7858363858 , -85.0153846154 , -3.14331054688 , 3.72314453125 , -0.221252441406 
2018/05/16 12:24:08.373957 , 0.0556640625 , 0.88720703125 , 0.560546875 , 23.5404151404 , 34.7858363858 , -85.0153846154 , -3.14331054688 , 3.72314453125 , -0.221252441406 
2018/05/16 12:24:08.666319 , 0.0556640625 , 0.88720703125 , 0.560546875 , 23.5404151404 , 34.7858363858 , -85.0153846154 , -3.14331054688 , 3.72314453125 , -0.221252441406 
2018/05/16 12:24:08.958887 , 0.0556640625 , 0.88720703125 , 0.560546875 , 23.5404151404 , 34.7858363858 , -85.0153846154 , -5.16510009766 , 5.7373046875 , -0.457763671875 
2018/05/16 12:24:09.251416 , 0.096435546875 , 0.89453125 , 0.545654296875 , 23.5404151404 , 34.7858363858 , -85.0153846154 , -5.16510009766 , 5.7373046875 , -0.457763671875 
2018/05/16 12:24:09.543863 , 0.096435546875 , 0.89453125 , 0.545654296875 , 23.5404151404 , 34.7858363858 , -85.0153846154 , -5.16510009766 , 5.7373046875 , -0.457763671875 
2018/05/16 12:24:09.836325 , 0.096435546875 , 0.89453125 , 0.545654296875 , 23.5404151404 , 34.7858363858 , -85.0153846154 , -5.16510009766 , 5.7373046875 , -0.457763671875 
2018/05/16 12:24:10.130096 , 0.048095703125 , 0.83349609375 , 0.498291015625 , 23.5404151404 , 34.7858363858 , -85.0153846154 , -3.64685058594 , 1.46484375 , -1.96075439453 
2018/05/16 12:24:10.421358 , 0.048095703125 , 0.83349609375 , 0.498291015625 , 23.5404151404 , 34.7858363858 , -85.0153846154 , -3.64685058594 , 1.46484375 , -1.96075439453 
2018/05/16 12:24:10.713969 , 0.048095703125 , 0.83349609375 , 0.498291015625 , 23.5404151404 , 34.7858363858 , -85.0153846154 , -3.64685058594 , 1.46484375 , -1.96075439453 
2018/05/16 12:24:11.006342 , 0.048095703125 , 0.83349609375 , 0.498291015625 , 22.9406593407 , 34.9357753358 , -85.1653235653 , -4.37164306641 , 5.74493408203 , -1.53350830078 
2018/05/16 12:24:11.298899 , -0.005859375 , 0.903076171875 , 0.5234375 , 22.9406593407 , 34.9357753358 , -85.1653235653 , -4.37164306641 , 5.74493408203 , -1.53350830078 
2018/05/16 12:24:11.591405 , -0.005859375 , 0.903076171875 , 0.5234375 , 22.9406593407 , 34.9357753358 , -85.1653235653 , -4.37164306641 , 5.74493408203 , -1.53350830078 
2018/05/16 12:24:11.883879 , -0.005859375 , 0.903076171875 , 0.5234375 , 22.9406593407 , 34.9357753358 , -85.1653235653 , -4.37164306641 , 5.74493408203 , -1.53350830078 
2018/05/16 12:24:12.176627 , 0.0546875 , 0.8828125 , 0.531494140625 , 23.2405372405 , 34.9357753358 , -86.8146520147 , -4.81414794922 , 3.35693359375 , 0.579833984375 
2018/05/16 12:24:12.468943 , 0.0546875 , 0.8828125 , 0.531494140625 , 23.2405372405 , 34.9357753358 , -86.8146520147 , -4.81414794922 , 3.35693359375 , 0.579833984375 
2018/05/16 12:24:12.761376 , 0.0546875 , 0.8828125 , 0.531494140625 , 23.2405372405 , 34.9357753358 , -86.8146520147 , -4.81414794922 , 3.35693359375 , 0.579833984375 
2018/05/16 12:24:13.054079 , 0.0546875 , 0.8828125 , 0.531494140625 , 22.041025641 , 33.4363858364 , -86.9645909646 , -4.65393066406 , 2.98309326172 , -0.595092773438 
2018/05/16 12:24:13.346425 , 0.07763671875 , 0.8779296875 , 0.53271484375 , 22.041025641 , 33.4363858364 , -86.9645909646 , -4.65393066406 , 2.98309326172 , -0.595092773438 
2018/05/16 12:24:13.639059 , 0.07763671875 , 0.8779296875 , 0.53271484375 , 22.041025641 , 33.4363858364 , -86.9645909646 , -4.65393066406 , 2.98309326172 , -0.595092773438 
2018/05/16 12:24:13.931435 , 0.07763671875 , 0.8779296875 , 0.53271484375 , 22.041025641 , 33.4363858364 , -86.9645909646 , -3.36456298828 , 3.08227539062 , -0.511169433594 
2018/05/16 12:24:14.224105 , 0.046142578125 , 0.8369140625 , 0.534423828125 , 23.2405372405 , 32.8366300366 , -86.8146520147 , -3.36456298828 , 3.08227539062 , -0.511169433594 
2018/05/16 12:24:14.516603 , 0.046142578125 , 0.8369140625 , 0.534423828125 , 23.2405372405 , 32.8366300366 , -86.8146520147 , -3.36456298828 , 3.08227539062 , -0.511169433594 
2018/05/16 12:24:14.809231 , 0.046142578125 , 0.8369140625 , 0.534423828125 , 23.2405372405 , 32.8366300366 , -86.8146520147 , -3.36456298828 , 3.08227539062 , -0.511169433594 
2018/05/16 12:24:15.101896 , 0.007080078125 , 0.89208984375 , 0.52880859375 , 22.6407814408 , 34.6358974359 , -86.5147741148 , -5.08880615234 , 5.35583496094 , -0.633239746094 
2018/05/16 12:24:15.394109 , 0.007080078125 , 0.89208984375 , 0.52880859375 , 22.6407814408 , 34.6358974359 , -86.5147741148 , -5.08880615234 , 5.35583496094 , -0.633239746094 
2018/05/16 12:24:15.686450 , 0.007080078125 , 0.89208984375 , 0.52880859375 , 22.6407814408 , 34.6358974359 , -86.5147741148 , -5.08880615234 , 5.35583496094 , -0.633239746094 
2018/05/16 12:24:15.978956 , 0.007080078125 , 0.89208984375 , 0.52880859375 , 22.6407814408 , 34.6358974359 , -86.5147741148 , -4.12750244141 , 5.13458251953 , 0.862121582031 
2018/05/16 12:24:16.271266 , 0.01123046875 , 0.865966796875 , 0.5673828125 , 23.9902319902 , 34.9357753358 , -85.7650793651 , -4.12750244141 , 5.13458251953 , 0.862121582031 
2018/05/16 12:24:16.563680 , 0.01123046875 , 0.865966796875 , 0.5673828125 , 23.9902319902 , 34.9357753358 , -85.7650793651 , -4.12750244141 , 5.13458251953 , 0.862121582031 
2018/05/16 12:24:16.905333 , 0.01123046875 , 0.865966796875 , 0.5673828125 , 23.9902319902 , 34.9357753358 , -85.7650793651 , -2.34222412109 , 3.24249267578 , 0.335693359375 
2018/05/16 12:24:17.197996 , 0.084716796875 , 0.833984375 , 0.494384765625 , 24.2901098901 , 33.2864468864 , -86.2148962149 , -2.34222412109 , 3.24249267578 , 0.335693359375 
2018/05/16 12:24:17.490298 , 0.084716796875 , 0.833984375 , 0.494384765625 , 24.2901098901 , 33.2864468864 , -86.2148962149 , -2.34222412109 , 3.24249267578 , 0.335693359375 
2018/05/16 12:24:17.782856 , 0.084716796875 , 0.833984375 , 0.494384765625 , 24.2901098901 , 33.2864468864 , -86.2148962149 , -2.34222412109 , 3.24249267578 , 0.335693359375 
2018/05/16 12:24:18.075498 , 0.084716796875 , 0.833984375 , 0.494384765625 , 23.5404151404 , 33.7362637363 , -86.6647130647 , -2.87628173828 , 4.26483154297 , 0.205993652344 
2018/05/16 12:24:18.367775 , 0.05908203125 , 0.843017578125 , 0.548095703125 , 23.5404151404 , 33.7362637363 , -86.6647130647 , -2.87628173828 , 4.26483154297 , 0.205993652344 
2018/05/16 12:24:18.660303 , 0.05908203125 , 0.843017578125 , 0.548095703125 , 23.5404151404 , 33.7362637363 , -86.6647130647 , -2.87628173828 , 4.26483154297 , 0.205993652344 
2018/05/16 12:24:18.952809 , 0.05908203125 , 0.843017578125 , 0.548095703125 , 23.5404151404 , 33.7362637363 , -86.6647130647 , -2.9296875 , 4.20379638672 , -0.999450683594 
2018/05/16 12:24:19.245453 , 0.0146484375 , 0.867431640625 , 0.53662109375 , 24.8898656899 , 32.6866910867 , -86.6647130647 , -2.9296875 , 4.20379638672 , -0.999450683594 
2018/05/16 12:24:19.537780 , 0.0146484375 , 0.867431640625 , 0.53662109375 , 24.8898656899 , 32.6866910867 , -86.6647130647 , -2.9296875 , 4.20379638672 , -0.999450683594 
2018/05/16 12:24:19.830331 , 0.0146484375 , 0.867431640625 , 0.53662109375 , 24.8898656899 , 32.6866910867 , -86.6647130647 , -2.9296875 , 4.20379638672 , -0.999450683594 
2018/05/16 12:24:20.123296 , 0.036376953125 , 0.88525390625 , 0.56005859375 , 24.8898656899 , 33.4363858364 , -85.6151404151 , -4.55474853516 , 4.69970703125 , -0.434875488281 
2018/05/16 12:24:20.415530 , 0.036376953125 , 0.88525390625 , 0.56005859375 , 24.8898656899 , 33.4363858364 , -85.6151404151 , -4.55474853516 , 4.69970703125 , -0.434875488281 
2018/05/16 12:24:20.707849 , 0.036376953125 , 0.88525390625 , 0.56005859375 , 24.8898656899 , 33.4363858364 , -85.6151404151 , -4.55474853516 , 4.69970703125 , -0.434875488281 
2018/05/16 12:24:21.000392 , 0.036376953125 , 0.88525390625 , 0.56005859375 , 22.9406593407 , 33.8862026862 , -86.8146520147 , -4.28009033203 , 4.66918945312 , -1.80816650391 
2018/05/16 12:24:21.292974 , 0.02099609375 , 0.85595703125 , 0.564697265625 , 22.9406593407 , 33.8862026862 , -86.8146520147 , -4.28009033203 , 4.66918945312 , -1.80816650391 
2018/05/16 12:24:21.585387 , 0.02099609375 , 0.85595703125 , 0.564697265625 , 22.9406593407 , 33.8862026862 , -86.8146520147 , -4.28009033203 , 4.66918945312 , -1.80816650391 
2018/05/16 12:24:21.877905 , 0.02099609375 , 0.85595703125 , 0.564697265625 , 22.9406593407 , 33.8862026862 , -86.8146520147 , -4.28009033203 , 4.66918945312 , -1.80816650391 
2018/05/16 12:24:22.170328 , 0.025146484375 , 0.918701171875 , 0.550537109375 , 24.2901098901 , 34.336019536 , -85.1653235653 , -2.90679931641 , 3.61633300781 , -0.518798828125 
2018/05/16 12:24:22.462991 , 0.025146484375 , 0.918701171875 , 0.550537109375 , 24.2901098901 , 34.336019536 , -85.1653235653 , -2.90679931641 , 3.61633300781 , -0.518798828125 
2018/05/16 12:24:22.755335 , 0.025146484375 , 0.918701171875 , 0.550537109375 , 24.2901098901 , 34.336019536 , -85.1653235653 , -2.90679931641 , 3.61633300781 , -0.518798828125 
2018/05/16 12:24:23.047940 , 0.025146484375 , 0.918701171875 , 0.550537109375 , 23.6903540904 , 34.6358974359 , -86.5147741148 , -5.11169433594 , 7.11822509766 , 0.54931640625 
2018/05/16 12:24:23.340416 , 0.040283203125 , 0.9052734375 , 0.54345703125 , 23.6903540904 , 34.6358974359 , -86.5147741148 , -5.11169433594 , 7.11822509766 , 0.54931640625 
2018/05/16 12:24:23.632879 , 0.040283203125 , 0.9052734375 , 0.54345703125 , 23.6903540904 , 34.6358974359 , -86.5147741148 , -5.11169433594 , 7.11822509766 , 0.54931640625 
2018/05/16 12:24:23.925393 , 0.040283203125 , 0.9052734375 , 0.54345703125 , 23.6903540904 , 34.6358974359 , -86.5147741148 , -1.80053710938 , 4.71496582031 , -1.27410888672 
2018/05/16 12:24:24.217992 , 0.056884765625 , 0.8505859375 , 0.552978515625 , 23.8402930403 , 34.1860805861 , -85.915018315 , -1.80053710938 , 4.71496582031 , -1.27410888672 
2018/05/16 12:24:24.559230 , 0.056884765625 , 0.8505859375 , 0.552978515625 , 23.8402930403 , 34.1860805861 , -85.915018315 , -1.80053710938 , 4.71496582031 , -1.27410888672 
2018/05/16 12:24:24.851706 , 0.056884765625 , 0.8505859375 , 0.552978515625 , 23.8402930403 , 34.1860805861 , -85.915018315 , -1.80053710938 , 4.71496582031 , -1.27410888672 
2018/05/16 12:24:25.144417 , 0.032958984375 , 0.891357421875 , 0.54150390625 , 21.8910866911 , 35.3855921856 , -86.2148962149 , -1.64031982422 , 2.45666503906 , -0.732421875 
2018/05/16 12:24:25.436693 , 0.032958984375 , 0.891357421875 , 0.54150390625 , 21.8910866911 , 35.3855921856 , -86.2148962149 , -1.64031982422 , 2.45666503906 , -0.732421875 
2018/05/16 12:24:25.729142 , 0.032958984375 , 0.891357421875 , 0.54150390625 , 21.8910866911 , 35.3855921856 , -86.2148962149 , -1.64031982422 , 2.45666503906 , -0.732421875 
2018/05/16 12:24:26.021677 , 0.032958984375 , 0.891357421875 , 0.54150390625 , 22.9406593407 , 32.8366300366 , -85.7650793651 , -4.85229492188 , 4.98962402344 , -0.251770019531 
2018/05/16 12:24:26.314184 , 0.001953125 , 0.8955078125 , 0.511962890625 , 22.9406593407 , 32.8366300366 , -85.7650793651 , -4.85229492188 , 4.98962402344 , -0.251770019531 
2018/05/16 12:24:26.606700 , 0.001953125 , 0.8955078125 , 0.511962890625 , 22.9406593407 , 32.8366300366 , -85.7650793651 , -4.85229492188 , 4.98962402344 , -0.251770019531 
2018/05/16 12:24:26.899247 , 0.001953125 , 0.8955078125 , 0.511962890625 , 22.9406593407 , 32.8366300366 , -85.7650793651 , -4.89807128906 , 4.32586669922 , 0.808715820312 
2018/05/16 12:24:27.191863 , 0.034912109375 , 0.846923828125 , 0.561767578125 , 23.8402930403 , 34.485958486 , -86.9645909646 , -4.89807128906 , 4.32586669922 , 0.808715820312 
2018/05/16 12:24:27.484229 , 0.034912109375 , 0.846923828125 , 0.561767578125 , 23.8402930403 , 34.485958486 , -86.9645909646 , -4.89807128906 , 4.32586669922 , 0.808715820312 
2018/05/16 12:24:27.776670 , 0.034912109375 , 0.846923828125 , 0.561767578125 , 23.8402930403 , 34.485958486 , -86.9645909646 , -4.89807128906 , 4.32586669922 , 0.808715820312 
2018/05/16 12:24:28.069316 , 0.034912109375 , 0.846923828125 , 0.561767578125 , 23.5404151404 , 32.6866910867 , -85.6151404151 , -3.73077392578 , 3.48663330078 , -0.968933105469 
2018/05/16 12:24:28.361692 , -0.032958984375 , 0.927001953125 , 0.518798828125 , 23.5404151404 , 32.6866910867 , -85.6151404151 , -3.73077392578 , 3.48663330078 , -0.968933105469 
2018/05/16 12:24:28.654242 , -0.032958984375 , 0.927001953125 , 0.518798828125 , 23.5404151404 , 32.6866910867 , -85.6151404151 , -3.73077392578 , 3.48663330078 , -0.968933105469 
2018/05/16 12:24:28.946673 , -0.032958984375 , 0.927001953125 , 0.518798828125 , 23.5404151404 , 32.6866910867 , -85.6151404151 , -3.77655029297 , 3.36456298828 , -2.20489501953 
2018/05/16 12:24:29.239352 , 0.054443359375 , 0.876953125 , 0.538818359375 , 22.041025641 , 33.4363858364 , -87.2644688645 , -3.77655029297 , 3.36456298828 , -2.20489501953 
2018/05/16 12:24:29.532064 , 0.054443359375 , 0.876953125 , 0.538818359375 , 22.041025641 , 33.4363858364 , -87.2644688645 , -3.77655029297 , 3.36456298828 , -2.20489501953 
2018/05/16 12:24:29.824219 , 0.054443359375 , 0.876953125 , 0.538818359375 , 22.041025641 , 33.4363858364 , -87.2644688645 , -3.77655029297 , 3.36456298828 , -2.20489501953 
2018/05/16 12:24:30.116873 , 0.0625 , 0.82373046875 , 0.48583984375 , 22.9406593407 , 33.8862026862 , -87.5643467643 , -4.24957275391 , 4.53186035156 , -3.05938720703 
2018/05/16 12:24:30.409331 , 0.0625 , 0.82373046875 , 0.48583984375 , 22.9406593407 , 33.8862026862 , -87.5643467643 , -4.24957275391 , 4.53186035156 , -3.05938720703 
2018/05/16 12:24:30.701694 , 0.0625 , 0.82373046875 , 0.48583984375 , 22.9406593407 , 33.8862026862 , -87.5643467643 , -4.24957275391 , 4.53186035156 , -3.05938720703 
2018/05/16 12:24:30.993933 , 0.0625 , 0.82373046875 , 0.48583984375 , 23.2405372405 , 33.8862026862 , -86.5147741148 , -4.72259521484 , 5.56182861328 , -0.396728515625 
2018/05/16 12:24:31.286498 , 0.033935546875 , 0.854736328125 , 0.555419921875 , 23.2405372405 , 33.8862026862 , -86.5147741148 , -4.72259521484 , 5.56182861328 , -0.396728515625 
2018/05/16 12:24:31.579236 , 0.033935546875 , 0.854736328125 , 0.555419921875 , 23.2405372405 , 33.8862026862 , -86.5147741148 , -4.72259521484 , 5.56182861328 , -0.396728515625 
2018/05/16 12:24:31.871714 , 0.033935546875 , 0.854736328125 , 0.555419921875 , 23.2405372405 , 33.8862026862 , -86.5147741148 , -4.72259521484 , 5.56182861328 , -0.396728515625 
2018/05/16 12:24:32.164526 , -0.01611328125 , 0.87744140625 , 0.550048828125 , 23.6903540904 , 35.3855921856 , -86.5147741148 , -5.78308105469 , 5.97381591797 , -1.74713134766 
2018/05/16 12:24:32.456882 , -0.01611328125 , 0.87744140625 , 0.550048828125 , 23.6903540904 , 35.3855921856 , -86.5147741148 , -5.78308105469 , 5.97381591797 , -1.74713134766 
2018/05/16 12:24:32.749250 , -0.01611328125 , 0.87744140625 , 0.550048828125 , 23.6903540904 , 35.3855921856 , -86.5147741148 , -5.78308105469 , 5.97381591797 , -1.74713134766 
2018/05/16 12:24:33.041788 , -0.01611328125 , 0.87744140625 , 0.550048828125 , 23.9902319902 , 34.6358974359 , -85.7650793651 , -5.92041015625 , 5.03540039062 , -1.98364257812 
2018/05/16 12:24:33.334290 , 0.051513671875 , 0.849609375 , 0.50927734375 , 23.9902319902 , 34.6358974359 , -85.7650793651 , -5.92041015625 , 5.03540039062 , -1.98364257812 
2018/05/16 12:24:33.626776 , 0.051513671875 , 0.849609375 , 0.50927734375 , 23.9902319902 , 34.6358974359 , -85.7650793651 , -5.92041015625 , 5.03540039062 , -1.98364257812 
2018/05/16 12:24:33.919238 , 0.051513671875 , 0.849609375 , 0.50927734375 , 23.9902319902 , 34.6358974359 , -85.7650793651 , -5.21087646484 , 5.42449951172 , -1.59454345703 
2018/05/16 12:24:34.211957 , -0.004150390625 , 0.9013671875 , 0.492919921875 , 24.58998779 , 34.485958486 , -86.3648351648 , -5.21087646484 , 5.42449951172 , -1.59454345703 
2018/05/16 12:24:34.504264 , -0.004150390625 , 0.9013671875 , 0.492919921875 , 24.58998779 , 34.485958486 , -86.3648351648 , -5.21087646484 , 5.42449951172 , -1.59454345703 
2018/05/16 12:24:34.796914 , -0.004150390625 , 0.9013671875 , 0.492919921875 , 24.58998779 , 34.485958486 , -86.3648351648 , -5.21087646484 , 5.42449951172 , -1.59454345703 
2018/05/16 12:24:35.089445 , 0.0166015625 , 0.87890625 , 0.5419921875 , 23.8402930403 , 35.2356532357 , -85.915018315 , -6.33239746094 , 6.30187988281 , -0.907897949219 
2018/05/16 12:24:35.381825 , 0.0166015625 , 0.87890625 , 0.5419921875 , 23.8402930403 , 35.2356532357 , -85.915018315 , -6.33239746094 , 6.30187988281 , -0.907897949219 
2018/05/16 12:24:35.674309 , 0.0166015625 , 0.87890625 , 0.5419921875 , 23.8402930403 , 35.2356532357 , -85.915018315 , -6.33239746094 , 6.30187988281 , -0.907897949219 
2018/05/16 12:24:35.966800 , 0.0166015625 , 0.87890625 , 0.5419921875 , 23.8402930403 , 35.2356532357 , -85.915018315 , -4.59289550781 , 5.44738769531 , -0.114440917969 
2018/05/16 12:24:36.259401 , 0.042236328125 , 0.859130859375 , 0.5537109375 , 23.0905982906 , 33.4363858364 , -86.3648351648 , -4.59289550781 , 5.44738769531 , -0.114440917969 
2018/05/16 12:24:36.551853 , 0.042236328125 , 0.859130859375 , 0.5537109375 , 23.0905982906 , 33.4363858364 , -86.3648351648 , -4.59289550781 , 5.44738769531 , -0.114440917969 
2018/05/16 12:24:36.844322 , 0.042236328125 , 0.859130859375 , 0.5537109375 , 23.0905982906 , 33.4363858364 , -86.3648351648 , -4.59289550781 , 5.44738769531 , -0.114440917969 
2018/05/16 12:24:37.136815 , 0.066650390625 , 0.869873046875 , 0.53271484375 , 23.0905982906 , 35.8354090354 , -84.2656898657 , -2.86865234375 , 3.18145751953 , -1.13677978516 
2018/05/16 12:24:37.429378 , 0.066650390625 , 0.869873046875 , 0.53271484375 , 23.0905982906 , 35.8354090354 , -84.2656898657 , -2.86865234375 , 3.18145751953 , -1.13677978516 
2018/05/16 12:24:37.721840 , 0.066650390625 , 0.869873046875 , 0.53271484375 , 23.0905982906 , 35.8354090354 , -84.2656898657 , -2.86865234375 , 3.18145751953 , -1.13677978516 
2018/05/16 12:24:38.014355 , 0.066650390625 , 0.869873046875 , 0.53271484375 , 24.1401709402 , 34.7858363858 , -86.6647130647 , -7.17926025391 , 7.80487060547 , -1.06811523438 
2018/05/16 12:24:38.307044 , 0.02880859375 , 0.877197265625 , 0.55126953125 , 24.1401709402 , 34.7858363858 , -86.6647130647 , -7.17926025391 , 7.80487060547 , -1.06811523438 
2018/05/16 12:24:38.599376 , 0.02880859375 , 0.877197265625 , 0.55126953125 , 24.1401709402 , 34.7858363858 , -86.6647130647 , -7.17926025391 , 7.80487060547 , -1.06811523438 
2018/05/16 12:24:38.891927 , 0.02880859375 , 0.877197265625 , 0.55126953125 , 24.1401709402 , 34.7858363858 , -86.6647130647 , -7.78198242188 , 6.48498535156 , -0.0686645507812 
2018/05/16 12:24:39.184508 , 0.010009765625 , 0.910400390625 , 0.5205078125 , 23.0905982906 , 34.1860805861 , -85.0153846154 , -7.78198242188 , 6.48498535156 , -0.0686645507812 
2018/05/16 12:24:39.476954 , 0.010009765625 , 0.910400390625 , 0.5205078125 , 23.0905982906 , 34.1860805861 , -85.0153846154 , -7.78198242188 , 6.48498535156 , -0.0686645507812 
2018/05/16 12:24:39.769358 , 0.010009765625 , 0.910400390625 , 0.5205078125 , 23.0905982906 , 34.1860805861 , -85.0153846154 , -7.78198242188 , 6.48498535156 , -0.0686645507812 
2018/05/16 12:24:40.061934 , 0.010009765625 , 0.910400390625 , 0.5205078125 , 23.0905982906 , 34.1860805861 , -85.0153846154 , -6.79016113281 , 4.58526611328 , -0.0991821289062 
2018/05/16 12:24:40.354414 , 0.052001953125 , 0.884033203125 , 0.52490234375 , 23.0905982906 , 34.1860805861 , -85.0153846154 , -6.79016113281 , 4.58526611328 , -0.0991821289062 
2018/05/16 12:24:40.646918 , 0.052001953125 , 0.884033203125 , 0.52490234375 , 23.0905982906 , 34.1860805861 , -85.0153846154 , -6.79016113281 , 4.58526611328 , -0.0991821289062 
2018/05/16 12:24:40.939446 , 0.052001953125 , 0.884033203125 , 0.52490234375 , 23.0905982906 , 34.1860805861 , -85.0153846154 , -3.7841796875 , 4.89044189453 , -1.25122070312 
2018/05/16 12:24:41.232067 , 0.061767578125 , 0.878662109375 , 0.5244140625 , 23.2405372405 , 36.1352869353 , -84.7155067155 , -3.7841796875 , 4.89044189453 , -1.25122070312 
2018/05/16 12:24:41.524423 , 0.061767578125 , 0.878662109375 , 0.5244140625 , 23.2405372405 , 36.1352869353 , -84.7155067155 , -3.7841796875 , 4.89044189453 , -1.25122070312 
2018/05/16 12:24:41.816918 , 0.061767578125 , 0.878662109375 , 0.5244140625 , 23.2405372405 , 36.1352869353 , -84.7155067155 , -3.7841796875 , 4.89044189453 , -1.25122070312 
2018/05/16 12:24:42.109617 , 0.029052734375 , 0.892578125 , 0.52392578125 , 23.2405372405 , 36.1352869353 , -84.7155067155 , -2.89154052734 , 4.07409667969 , -0.320434570312 
2018/05/16 12:24:42.402076 , 0.029052734375 , 0.892578125 , 0.52392578125 , 23.2405372405 , 36.1352869353 , -84.7155067155 , -2.89154052734 , 4.07409667969 , -0.320434570312 
2018/05/16 12:24:42.694418 , 0.029052734375 , 0.892578125 , 0.52392578125 , 23.2405372405 , 36.1352869353 , -84.7155067155 , -2.89154052734 , 4.07409667969 , -0.320434570312 
2018/05/16 12:24:42.986894 , 0.029052734375 , 0.892578125 , 0.52392578125 , 21.5912087912 , 32.8366300366 , -85.4652014652 , -4.84466552734 , 5.80596923828 , -0.480651855469 
2018/05/16 12:24:43.279520 , 0.033203125 , 0.884033203125 , 0.51123046875 , 21.5912087912 , 32.8366300366 , -85.4652014652 , -4.84466552734 , 5.80596923828 , -0.480651855469 
2018/05/16 12:24:43.572013 , 0.033203125 , 0.884033203125 , 0.51123046875 , 21.5912087912 , 32.8366300366 , -85.4652014652 , -4.84466552734 , 5.80596923828 , -0.480651855469 
2018/05/16 12:24:43.864442 , 0.033203125 , 0.884033203125 , 0.51123046875 , 21.5912087912 , 32.8366300366 , -85.4652014652 , -4.84466552734 , 5.80596923828 , -0.480651855469 
2018/05/16 12:24:44.156958 , 0.0048828125 , 0.890625 , 0.502685546875 , 21.5912087912 , 32.8366300366 , -85.4652014652 , -2.61688232422 , 4.72259521484 , -0.465393066406 
2018/05/16 12:24:44.449607 , 0.0048828125 , 0.890625 , 0.502685546875 , 21.5912087912 , 32.8366300366 , -85.4652014652 , -2.61688232422 , 4.72259521484 , -0.465393066406 
2018/05/16 12:24:44.741964 , 0.0048828125 , 0.890625 , 0.502685546875 , 21.5912087912 , 32.8366300366 , -85.4652014652 , -2.61688232422 , 4.72259521484 , -0.465393066406 
2018/05/16 12:24:45.034500 , 0.0048828125 , 0.890625 , 0.502685546875 , 21.7411477411 , 34.1860805861 , -88.0141636142 , -4.89044189453 , 4.14276123047 , -1.41906738281 
2018/05/16 12:24:45.327007 , 0.053466796875 , 0.868896484375 , 0.542724609375 , 21.7411477411 , 34.1860805861 , -88.0141636142 , -4.89044189453 , 4.14276123047 , -1.41906738281 
2018/05/16 12:24:45.619458 , 0.053466796875 , 0.868896484375 , 0.542724609375 , 21.7411477411 , 34.1860805861 , -88.0141636142 , -4.89044189453 , 4.14276123047 , -1.41906738281 
2018/05/16 12:24:45.912028 , 0.053466796875 , 0.868896484375 , 0.542724609375 , 21.7411477411 , 34.1860805861 , -88.0141636142 , -4.30297851562 , 6.42395019531 , 0.320434570312 
2018/05/16 12:24:46.204703 , 0.00537109375 , 0.8408203125 , 0.5283203125 , 21.7411477411 , 34.1860805861 , -88.0141636142 , -4.30297851562 , 6.42395019531 , 0.320434570312 
2018/05/16 12:24:46.497035 , 0.00537109375 , 0.8408203125 , 0.5283203125 , 21.7411477411 , 34.1860805861 , -88.0141636142 , -4.30297851562 , 6.42395019531 , 0.320434570312 
2018/05/16 12:24:46.789606 , 0.00537109375 , 0.8408203125 , 0.5283203125 , 21.7411477411 , 34.1860805861 , -88.0141636142 , -4.30297851562 , 6.42395019531 , 0.320434570312 
2018/05/16 12:24:47.082104 , 0.00537109375 , 0.8408203125 , 0.5283203125 , 21.7411477411 , 34.1860805861 , -88.0141636142 , -5.87463378906 , 3.52478027344 , -1.03759765625 
2018/05/16 12:24:47.374784 , 0.061279296875 , 0.89013671875 , 0.54150390625 , 21.7411477411 , 34.1860805861 , -88.0141636142 , -5.87463378906 , 3.52478027344 , -1.03759765625 
2018/05/16 12:24:47.667044 , 0.061279296875 , 0.89013671875 , 0.54150390625 , 21.7411477411 , 34.1860805861 , -88.0141636142 , -5.87463378906 , 3.52478027344 , -1.03759765625 
2018/05/16 12:24:47.959537 , 0.061279296875 , 0.89013671875 , 0.54150390625 , 21.7411477411 , 34.1860805861 , -88.0141636142 , -6.39343261719 , 4.32586669922 , -0.328063964844 
2018/05/16 12:24:48.252143 , -0.0078125 , 0.96142578125 , 0.53173828125 , 22.9406593407 , 34.336019536 , -85.7650793651 , -6.39343261719 , 4.32586669922 , -0.328063964844 
2018/05/16 12:24:48.544547 , -0.0078125 , 0.96142578125 , 0.53173828125 , 22.9406593407 , 34.336019536 , -85.7650793651 , -6.39343261719 , 4.32586669922 , -0.328063964844 
2018/05/16 12:24:48.837048 , -0.0078125 , 0.96142578125 , 0.53173828125 , 22.9406593407 , 34.336019536 , -85.7650793651 , -6.39343261719 , 4.32586669922 , -0.328063964844 
2018/05/16 12:24:49.129782 , 0.067626953125 , 0.894287109375 , 0.502685546875 , 23.2405372405 , 34.6358974359 , -86.5147741148 , -2.45666503906 , 2.72369384766 , 0.679016113281 
2018/05/16 12:24:49.422073 , 0.067626953125 , 0.894287109375 , 0.502685546875 , 23.2405372405 , 34.6358974359 , -86.5147741148 , -2.45666503906 , 2.72369384766 , 0.679016113281 
2018/05/16 12:24:49.714514 , 0.067626953125 , 0.894287109375 , 0.502685546875 , 23.2405372405 , 34.6358974359 , -86.5147741148 , -2.45666503906 , 2.72369384766 , 0.679016113281 
2018/05/16 12:24:50.007038 , 0.067626953125 , 0.894287109375 , 0.502685546875 , 23.2405372405 , 34.6358974359 , -86.5147741148 , -3.46374511719 , 3.57055664062 , -1.10626220703 
2018/05/16 12:24:50.299633 , 0.037353515625 , 0.885009765625 , 0.5654296875 , 23.2405372405 , 34.6358974359 , -86.5147741148 , -3.46374511719 , 3.57055664062 , -1.10626220703 
2018/05/16 12:24:50.592090 , 0.037353515625 , 0.885009765625 , 0.5654296875 , 23.2405372405 , 34.6358974359 , -86.5147741148 , -3.46374511719 , 3.57055664062 , -1.10626220703 
2018/05/16 12:24:50.884691 , 0.037353515625 , 0.885009765625 , 0.5654296875 , 23.2405372405 , 34.6358974359 , -86.5147741148 , -3.46374511719 , 3.57055664062 , -1.10626220703 
2018/05/16 12:24:51.177233 , 0.01171875 , 0.88330078125 , 0.54052734375 , 23.2405372405 , 34.6358974359 , -86.5147741148 , -3.5400390625 , 4.37164306641 , -1.80053710938 
2018/05/16 12:24:51.469686 , 0.01171875 , 0.88330078125 , 0.54052734375 , 23.2405372405 , 34.6358974359 , -86.5147741148 , -3.5400390625 , 4.37164306641 , -1.80053710938 
2018/05/16 12:24:51.762019 , 0.01171875 , 0.88330078125 , 0.54052734375 , 23.2405372405 , 34.6358974359 , -86.5147741148 , -3.5400390625 , 4.37164306641 , -1.80053710938 
2018/05/16 12:24:52.054510 , 0.01171875 , 0.88330078125 , 0.54052734375 , 24.2901098901 , 34.6358974359 , -85.4652014652 , -3.53240966797 , 4.83703613281 , 0.00762939453125 
2018/05/16 12:24:52.346873 , 0.027099609375 , 0.86767578125 , 0.495849609375 , 24.2901098901 , 34.6358974359 , -85.4652014652 , -3.53240966797 , 4.83703613281 , 0.00762939453125 
2018/05/16 12:24:52.639936 , 0.027099609375 , 0.86767578125 , 0.495849609375 , 24.2901098901 , 34.6358974359 , -85.4652014652 , -3.53240966797 , 4.83703613281 , 0.00762939453125 
2018/05/16 12:24:52.932144 , 0.027099609375 , 0.86767578125 , 0.495849609375 , 24.2901098901 , 34.6358974359 , -85.4652014652 , -3.62396240234 , 3.27301025391 , -0.457763671875 
2018/05/16 12:24:53.224749 , 0.0244140625 , 0.893310546875 , 0.537109375 , 24.7399267399 , 33.8862026862 , -84.7155067155 , -3.62396240234 , 3.27301025391 , -0.457763671875 
2018/05/16 12:24:53.517187 , 0.0244140625 , 0.893310546875 , 0.537109375 , 24.7399267399 , 33.8862026862 , -84.7155067155 , -3.62396240234 , 3.27301025391 , -0.457763671875 
2018/05/16 12:24:53.809716 , 0.0244140625 , 0.893310546875 , 0.537109375 , 24.7399267399 , 33.8862026862 , -84.7155067155 , -3.62396240234 , 3.27301025391 , -0.457763671875 
2018/05/16 12:24:54.102377 , 0.03076171875 , 0.9052734375 , 0.552490234375 , 24.7399267399 , 33.8862026862 , -84.7155067155 , -2.71606445312 , 4.44030761719 , -0.411987304688 
