Connecting to 24:71:89:C1:0D:07
time ,acc-x,acc-y,acc-z ,mag-x,mag-y,mag-z ,gyr-x,gyr-y,gyr-z 
2018/05/16 11:24:07.386175 , 0.0 , 0.0 , 0.0 , 0.0 , 0.0 , 0.0 , 0.0 , 0.0 , 0.0 
2018/05/16 11:24:07.638944 , 0.0 , 0.0 , 0.0 , 0.0 , 0.0 , 0.0 , 0.0 , 0.0 , 0.0 
2018/05/16 11:24:07.931469 , 0.0 , 0.0 , 0.0 , 0.0 , 0.0 , 0.0 , 0.0 , 0.0 , 0.0 
2018/05/16 11:24:08.223956 , 0.025390625 , 0.0068359375 , 1.04516601562 , 0.0 , 0.0 , 0.0 , -3.67736816406 , 4.39453125 , -0.732421875 
2018/05/16 11:24:08.516595 , 0.025390625 , 0.0068359375 , 1.04516601562 , 0.0 , 0.0 , 0.0 , -3.67736816406 , 4.39453125 , -0.732421875 
2018/05/16 11:24:08.809268 , 0.025390625 , 0.0068359375 , 1.04516601562 , 0.0 , 0.0 , 0.0 , -3.67736816406 , 4.39453125 , -0.732421875 
2018/05/16 11:24:09.101623 , 0.025390625 , 0.0068359375 , 1.04516601562 , 11.2454212454 , 6.59731379731 , -107.056410256 , -5.26428222656 , 5.63812255859 , 2.24304199219 
2018/05/16 11:24:09.491588 , 0.0185546875 , 0.0673828125 , 4.0556640625 , 11.2454212454 , 6.59731379731 , -107.056410256 , -5.26428222656 , 5.63812255859 , 2.24304199219 
2018/05/16 11:24:09.784328 , 0.0185546875 , 0.0673828125 , 4.0556640625 , 11.2454212454 , 6.59731379731 , -107.056410256 , -5.26428222656 , 5.63812255859 , 2.24304199219 
2018/05/16 11:24:21.793543 , 0.0185546875 , 0.0673828125 , 4.0556640625 , 12.294993895 , 6.59731379731 , -114.253479853 , -4.81414794922 , 3.70788574219 , -1.73950195312 
2018/05/16 11:24:22.086154 , 0.12109375 , 0.3193359375 , 4.1611328125 , 12.294993895 , 6.59731379731 , -114.253479853 , -4.81414794922 , 3.70788574219 , -1.73950195312 
2018/05/16 11:24:22.378598 , 0.12109375 , 0.3193359375 , 4.1611328125 , 12.294993895 , 6.59731379731 , -114.253479853 , -4.81414794922 , 3.70788574219 , -1.73950195312 
2018/05/16 11:24:22.671283 , 0.12109375 , 0.3193359375 , 4.1611328125 , 12.294993895 , 6.59731379731 , -114.253479853 , -6.41632080078 , 4.62341308594 , -0.892639160156 
2018/05/16 11:24:22.963743 , -0.0625 , 0.1005859375 , 4.080078125 , 11.8451770452 , 5.54774114774 , -113.203907204 , -6.41632080078 , 4.62341308594 , -0.892639160156 
2018/05/16 11:24:23.256170 , -0.0625 , 0.1005859375 , 4.080078125 , 11.8451770452 , 5.54774114774 , -113.203907204 , -6.41632080078 , 4.62341308594 , -0.892639160156 
2018/05/16 11:24:23.548658 , -0.0625 , 0.1005859375 , 4.080078125 , 11.8451770452 , 5.54774114774 , -113.203907204 , -6.41632080078 , 4.62341308594 , -0.892639160156 
2018/05/16 11:24:23.841107 , -0.072265625 , -0.0556640625 , 4.154296875 , 12.5948717949 , 5.54774114774 , -114.253479853 , -5.17272949219 , 3.57818603516 , -0.511169433594 
2018/05/16 11:24:24.133792 , -0.072265625 , -0.0556640625 , 4.154296875 , 12.5948717949 , 5.54774114774 , -114.253479853 , -5.17272949219 , 3.57818603516 , -0.511169433594 
2018/05/16 11:24:24.426278 , -0.072265625 , -0.0556640625 , 4.154296875 , 12.5948717949 , 5.54774114774 , -114.253479853 , -5.17272949219 , 3.57818603516 , -0.511169433594 
2018/05/16 11:24:24.718606 , -0.072265625 , -0.0556640625 , 4.154296875 , 12.5948717949 , 5.54774114774 , -114.253479853 , -4.69207763672 , 5.10406494141 , 0.0228881835938 
2018/05/16 11:24:25.011063 , 0.279296875 , -0.1103515625 , 4.123046875 , 12.4449328449 , 7.49694749695 , -111.404639805 , -4.69207763672 , 5.10406494141 , 0.0228881835938 
2018/05/16 11:24:25.303593 , 0.279296875 , -0.1103515625 , 4.123046875 , 12.4449328449 , 7.49694749695 , -111.404639805 , -4.69207763672 , 5.10406494141 , 0.0228881835938 
2018/05/16 11:24:25.596212 , 0.279296875 , -0.1103515625 , 4.123046875 , 12.4449328449 , 7.49694749695 , -111.404639805 , -4.69207763672 , 5.10406494141 , 0.0228881835938 
2018/05/16 11:24:25.888659 , -0.0576171875 , 0.017578125 , 3.955078125 , 12.294993895 , 8.0967032967 , -111.854456654 , -4.18853759766 , 3.08227539062 , -0.755310058594 
2018/05/16 11:24:26.181013 , -0.0576171875 , 0.017578125 , 3.955078125 , 12.294993895 , 8.0967032967 , -111.854456654 , -4.18853759766 , 3.08227539062 , -0.755310058594 
2018/05/16 11:24:26.473616 , -0.0576171875 , 0.017578125 , 3.955078125 , 12.294993895 , 8.0967032967 , -111.854456654 , -4.18853759766 , 3.08227539062 , -0.755310058594 
2018/05/16 11:24:26.766102 , -0.0576171875 , 0.017578125 , 3.955078125 , 12.8947496947 , 7.64688644689 , -113.653724054 , -3.73077392578 , 4.95147705078 , 1.29699707031 
2018/05/16 11:24:27.058553 , 0.1533203125 , 0.0302734375 , 3.970703125 , 12.8947496947 , 7.64688644689 , -113.653724054 , -3.73077392578 , 4.95147705078 , 1.29699707031 
2018/05/16 11:24:27.350750 , 0.1533203125 , 0.0302734375 , 3.970703125 , 12.8947496947 , 7.64688644689 , -113.653724054 , -3.73077392578 , 4.95147705078 , 1.29699707031 
2018/05/16 11:24:27.643254 , 0.1533203125 , 0.0302734375 , 3.970703125 , 12.8947496947 , 7.64688644689 , -113.653724054 , -4.53186035156 , 4.54711914062 , -0.30517578125 
2018/05/16 11:24:27.936018 , -0.0478515625 , 0.2529296875 , 4.130859375 , 12.7448107448 , 6.44737484737 , -112.004395604 , -4.53186035156 , 4.54711914062 , -0.30517578125 
2018/05/16 11:24:28.228625 , -0.0478515625 , 0.2529296875 , 4.130859375 , 12.7448107448 , 6.44737484737 , -112.004395604 , -4.53186035156 , 4.54711914062 , -0.30517578125 
2018/05/16 11:24:28.521094 , -0.0478515625 , 0.2529296875 , 4.130859375 , 12.7448107448 , 6.44737484737 , -112.004395604 , -4.53186035156 , 4.54711914062 , -0.30517578125 
2018/05/16 11:24:28.813642 , -0.0478515625 , 0.2529296875 , 4.130859375 , 12.4449328449 , 7.79682539683 , -113.053968254 , -2.95257568359 , 4.19616699219 , 0.404357910156 
2018/05/16 11:24:29.154941 , 0.025390625 , 0.0166015625 , 4.2294921875 , 12.4449328449 , 7.79682539683 , -113.053968254 , -2.95257568359 , 4.19616699219 , 0.404357910156 
2018/05/16 11:24:29.447303 , 0.025390625 , 0.0166015625 , 4.2294921875 , 12.4449328449 , 7.79682539683 , -113.053968254 , -2.95257568359 , 4.19616699219 , 0.404357910156 
2018/05/16 11:24:29.739801 , 0.025390625 , 0.0166015625 , 4.2294921875 , 11.2454212454 , 5.54774114774 , -112.904029304 , -3.86047363281 , 5.72204589844 , 2.12860107422 
2018/05/16 11:24:30.032391 , 0.1533203125 , 0.11328125 , 4.1689453125 , 11.2454212454 , 5.54774114774 , -112.904029304 , -3.86047363281 , 5.72204589844 , 2.12860107422 
2018/05/16 11:24:30.324791 , 0.1533203125 , 0.11328125 , 4.1689453125 , 11.2454212454 , 5.54774114774 , -112.904029304 , -3.86047363281 , 5.72204589844 , 2.12860107422 
2018/05/16 11:24:30.617325 , 0.1533203125 , 0.11328125 , 4.1689453125 , 11.2454212454 , 5.54774114774 , -112.904029304 , -3.86047363281 , 5.72204589844 , 2.12860107422 
2018/05/16 11:24:30.909887 , 0.271484375 , 0.310546875 , 4.169921875 , 11.6952380952 , 6.74725274725 , -112.754090354 , -3.38745117188 , 5.53894042969 , 0.48828125 
2018/05/16 11:24:31.202393 , 0.271484375 , 0.310546875 , 4.169921875 , 11.6952380952 , 6.74725274725 , -112.754090354 , -3.38745117188 , 5.53894042969 , 0.48828125 
2018/05/16 11:24:31.494857 , 0.271484375 , 0.310546875 , 4.169921875 , 11.6952380952 , 6.74725274725 , -112.754090354 , -3.38745117188 , 5.53894042969 , 0.48828125 
2018/05/16 11:24:31.787334 , 0.271484375 , 0.310546875 , 4.169921875 , 13.0446886447 , 7.49694749695 , -112.754090354 , -4.44793701172 , 5.29479980469 , 0.06103515625 
2018/05/16 11:24:32.079909 , 0.0478515625 , 0.1669921875 , 4.2080078125 , 13.0446886447 , 7.49694749695 , -112.754090354 , -4.44793701172 , 5.29479980469 , 0.06103515625 
2018/05/16 11:24:32.372421 , 0.0478515625 , 0.1669921875 , 4.2080078125 , 13.0446886447 , 7.49694749695 , -112.754090354 , -4.44793701172 , 5.29479980469 , 0.06103515625 
2018/05/16 11:24:32.664926 , 0.0478515625 , 0.1669921875 , 4.2080078125 , 13.0446886447 , 7.49694749695 , -112.754090354 , -4.37927246094 , 5.03540039062 , -0.419616699219 
2018/05/16 11:24:32.957437 , 0.1259765625 , 0.162109375 , 4.177734375 , 13.3445665446 , 6.59731379731 , -113.203907204 , -4.37927246094 , 5.03540039062 , -0.419616699219 
2018/05/16 11:24:33.249918 , 0.1259765625 , 0.162109375 , 4.177734375 , 13.3445665446 , 6.59731379731 , -113.203907204 , -4.37927246094 , 5.03540039062 , -0.419616699219 
2018/05/16 11:24:33.542405 , 0.1259765625 , 0.162109375 , 4.177734375 , 13.3445665446 , 6.59731379731 , -113.203907204 , -4.37927246094 , 5.03540039062 , -0.419616699219 
2018/05/16 11:24:33.835048 , 0.2607421875 , 0.1474609375 , 4.01953125 , 11.8451770452 , 8.0967032967 , -112.154334554 , -5.66864013672 , 6.19506835938 , 0.0534057617188 
2018/05/16 11:24:34.127696 , 0.2607421875 , 0.1474609375 , 4.01953125 , 11.8451770452 , 8.0967032967 , -112.154334554 , -5.66864013672 , 6.19506835938 , 0.0534057617188 
2018/05/16 11:24:34.419894 , 0.2607421875 , 0.1474609375 , 4.01953125 , 11.8451770452 , 8.0967032967 , -112.154334554 , -5.66864013672 , 6.19506835938 , 0.0534057617188 
2018/05/16 11:24:34.712423 , 0.2607421875 , 0.1474609375 , 4.01953125 , 11.8451770452 , 8.0967032967 , -112.154334554 , -4.79125976562 , 5.43212890625 , -0.274658203125 
2018/05/16 11:24:35.004910 , -0.029296875 , 0.3369140625 , 4.1513671875 , 12.294993895 , 7.04713064713 , -111.854456654 , -4.79125976562 , 5.43212890625 , -0.274658203125 
2018/05/16 11:24:35.297709 , -0.029296875 , 0.3369140625 , 4.1513671875 , 12.294993895 , 7.04713064713 , -111.854456654 , -4.79125976562 , 5.43212890625 , -0.274658203125 
2018/05/16 11:24:35.589858 , -0.029296875 , 0.3369140625 , 4.1513671875 , 12.294993895 , 7.04713064713 , -111.854456654 , -4.79125976562 , 5.43212890625 , -0.274658203125 
2018/05/16 11:24:35.882375 , -0.294921875 , 0.0810546875 , 3.8251953125 , 13.6444444444 , 6.59731379731 , -111.254700855 , -4.23431396484 , 3.71551513672 , -0.129699707031 
2018/05/16 11:24:36.175005 , -0.294921875 , 0.0810546875 , 3.8251953125 , 13.6444444444 , 6.59731379731 , -111.254700855 , -4.23431396484 , 3.71551513672 , -0.129699707031 
2018/05/16 11:24:36.467447 , -0.294921875 , 0.0810546875 , 3.8251953125 , 13.6444444444 , 6.59731379731 , -111.254700855 , -4.23431396484 , 3.71551513672 , -0.129699707031 
2018/05/16 11:24:36.759849 , -0.294921875 , 0.0810546875 , 3.8251953125 , 10.9455433455 , 7.49694749695 , -112.004395604 , -5.05828857422 , 4.638671875 , -0.0457763671875 
2018/05/16 11:24:37.052424 , 0.0146484375 , 0.0302734375 , 4.2451171875 , 10.9455433455 , 7.49694749695 , -112.004395604 , -5.05828857422 , 4.638671875 , -0.0457763671875 
2018/05/16 11:24:37.344873 , 0.0146484375 , 0.0302734375 , 4.2451171875 , 10.9455433455 , 7.49694749695 , -112.004395604 , -5.05828857422 , 4.638671875 , -0.0457763671875 
2018/05/16 11:24:37.637333 , 0.0146484375 , 0.0302734375 , 4.2451171875 , 10.9455433455 , 7.49694749695 , -112.004395604 , -4.50897216797 , 3.55529785156 , -0.137329101562 
2018/05/16 11:24:37.929911 , 0.1748046875 , 0.001953125 , 4.2236328125 , 12.294993895 , 6.59731379731 , -110.205128205 , -4.50897216797 , 3.55529785156 , -0.137329101562 
2018/05/16 11:24:38.222538 , 0.1748046875 , 0.001953125 , 4.2236328125 , 12.294993895 , 6.59731379731 , -110.205128205 , -4.50897216797 , 3.55529785156 , -0.137329101562 
2018/05/16 11:24:38.514916 , 0.1748046875 , 0.001953125 , 4.2236328125 , 12.294993895 , 6.59731379731 , -110.205128205 , -4.50897216797 , 3.55529785156 , -0.137329101562 
2018/05/16 11:24:38.807503 , 0.1748046875 , 0.001953125 , 4.2236328125 , 12.7448107448 , 7.19706959707 , -111.704517705 , -4.8828125 , 4.25720214844 , 1.708984375 
2018/05/16 11:24:39.100081 , -0.0009765625 , -0.0625 , 4.419921875 , 12.7448107448 , 7.19706959707 , -111.704517705 , -4.8828125 , 4.25720214844 , 1.708984375 
2018/05/16 11:24:39.392487 , -0.0009765625 , -0.0625 , 4.419921875 , 12.7448107448 , 7.19706959707 , -111.704517705 , -4.8828125 , 4.25720214844 , 1.708984375 
2018/05/16 11:24:39.684870 , -0.0009765625 , -0.0625 , 4.419921875 , 12.7448107448 , 7.19706959707 , -111.704517705 , -4.2724609375 , 5.45501708984 , -1.19018554688 
2018/05/16 11:24:39.977401 , 0.419921875 , 0.05859375 , 4.2080078125 , 10.6456654457 , 8.8463980464 , -113.053968254 , -4.2724609375 , 5.45501708984 , -1.19018554688 
2018/05/16 11:24:40.270027 , 0.419921875 , 0.05859375 , 4.2080078125 , 10.6456654457 , 8.8463980464 , -113.053968254 , -4.2724609375 , 5.45501708984 , -1.19018554688 
2018/05/16 11:24:40.562424 , 0.419921875 , 0.05859375 , 4.2080078125 , 10.6456654457 , 8.8463980464 , -113.053968254 , -4.2724609375 , 5.45501708984 , -1.19018554688 
2018/05/16 11:24:40.855104 , 0.09765625 , 0.17578125 , 4.080078125 , 11.8451770452 , 6.59731379731 , -111.854456654 , -4.86755371094 , 6.27136230469 , -0.244140625 
2018/05/16 11:24:41.147517 , 0.09765625 , 0.17578125 , 4.080078125 , 11.8451770452 , 6.59731379731 , -111.854456654 , -4.86755371094 , 6.27136230469 , -0.244140625 
2018/05/16 11:24:41.439968 , 0.09765625 , 0.17578125 , 4.080078125 , 11.8451770452 , 6.59731379731 , -111.854456654 , -4.86755371094 , 6.27136230469 , -0.244140625 
2018/05/16 11:24:41.732442 , 0.09765625 , 0.17578125 , 4.080078125 , 12.5948717949 , 5.54774114774 , -113.653724054 , -5.36346435547 , 5.94329833984 , -0.991821289062 
2018/05/16 11:24:42.025040 , 0.0908203125 , 0.171875 , 4.1123046875 , 12.5948717949 , 5.54774114774 , -113.653724054 , -5.36346435547 , 5.94329833984 , -0.991821289062 
2018/05/16 11:24:42.317513 , 0.0908203125 , 0.171875 , 4.1123046875 , 12.5948717949 , 5.54774114774 , -113.653724054 , -5.36346435547 , 5.94329833984 , -0.991821289062 
2018/05/16 11:24:42.610064 , 0.0908203125 , 0.171875 , 4.1123046875 , 12.5948717949 , 5.54774114774 , -113.653724054 , -5.36346435547 , 5.94329833984 , -0.991821289062 
2018/05/16 11:24:42.902447 , -0.1865234375 , 0.212890625 , 3.990234375 , 12.5948717949 , 5.54774114774 , -113.653724054 , -4.89807128906 , 5.48553466797 , -1.06048583984 
2018/05/16 11:24:43.195147 , -0.1865234375 , 0.212890625 , 3.990234375 , 12.5948717949 , 5.54774114774 , -113.653724054 , -4.89807128906 , 5.48553466797 , -1.06048583984 
2018/05/16 11:24:43.487462 , -0.1865234375 , 0.212890625 , 3.990234375 , 12.5948717949 , 5.54774114774 , -113.653724054 , -4.89807128906 , 5.48553466797 , -1.06048583984 
2018/05/16 11:24:43.780111 , -0.1865234375 , 0.212890625 , 3.990234375 , 10.9455433455 , 6.44737484737 , -112.004395604 , -4.43267822266 , 5.0048828125 , -0.0991821289062 
2018/05/16 11:24:44.072672 , 0.0458984375 , 0.0263671875 , 4.2275390625 , 10.9455433455 , 6.44737484737 , -112.004395604 , -4.43267822266 , 5.0048828125 , -0.0991821289062 
2018/05/16 11:24:44.365118 , 0.0458984375 , 0.0263671875 , 4.2275390625 , 10.9455433455 , 6.44737484737 , -112.004395604 , -4.43267822266 , 5.0048828125 , -0.0991821289062 
2018/05/16 11:24:44.657577 , 0.0458984375 , 0.0263671875 , 4.2275390625 , 10.9455433455 , 6.44737484737 , -112.004395604 , -6.51550292969 , 6.23321533203 , 0.213623046875 
2018/05/16 11:24:44.998849 , 0.1826171875 , 0.04296875 , 4.0234375 , 10.9455433455 , 6.44737484737 , -112.004395604 , -6.51550292969 , 6.23321533203 , 0.213623046875 
2018/05/16 11:24:45.291287 , 0.1826171875 , 0.04296875 , 4.0234375 , 10.9455433455 , 6.44737484737 , -112.004395604 , -6.51550292969 , 6.23321533203 , 0.213623046875 
2018/05/16 11:24:45.583721 , 0.1826171875 , 0.04296875 , 4.0234375 , 10.9455433455 , 6.44737484737 , -112.004395604 , -6.51550292969 , 6.23321533203 , 0.213623046875 
2018/05/16 11:24:45.876237 , 0.17578125 , 0.1298828125 , 4.1328125 , 11.3953601954 , 6.74725274725 , -113.053968254 , -2.72369384766 , 5.2490234375 , -1.16729736328 
2018/05/16 11:24:46.168896 , 0.17578125 , 0.1298828125 , 4.1328125 , 11.3953601954 , 6.74725274725 , -113.053968254 , -2.72369384766 , 5.2490234375 , -1.16729736328 
2018/05/16 11:24:46.461320 , 0.17578125 , 0.1298828125 , 4.1328125 , 11.3953601954 , 6.74725274725 , -113.053968254 , -2.72369384766 , 5.2490234375 , -1.16729736328 
2018/05/16 11:24:46.754035 , 0.17578125 , 0.1298828125 , 4.1328125 , 11.3953601954 , 6.74725274725 , -113.053968254 , -3.21197509766 , 5.08117675781 , 0.030517578125 
2018/05/16 11:24:47.045920 , 0.0849609375 , 0.21484375 , 4.337890625 , 11.3953601954 , 6.74725274725 , -113.053968254 , -3.21197509766 , 5.08117675781 , 0.030517578125 
2018/05/16 11:24:47.338627 , 0.0849609375 , 0.21484375 , 4.337890625 , 11.3953601954 , 6.74725274725 , -113.053968254 , -3.21197509766 , 5.08117675781 , 0.030517578125 
2018/05/16 11:24:47.631228 , 0.0849609375 , 0.21484375 , 4.337890625 , 11.3953601954 , 6.74725274725 , -113.053968254 , -3.37219238281 , 3.42559814453 , -1.53350830078 
2018/05/16 11:24:47.923840 , 0.2734375 , -0.0126953125 , 4.171875 , 12.7448107448 , 6.44737484737 , -112.754090354 , -3.37219238281 , 3.42559814453 , -1.53350830078 
2018/05/16 11:24:48.216352 , 0.2734375 , -0.0126953125 , 4.171875 , 12.7448107448 , 6.44737484737 , -112.754090354 , -3.37219238281 , 3.42559814453 , -1.53350830078 
2018/05/16 11:24:48.508797 , 0.2734375 , -0.0126953125 , 4.171875 , 12.7448107448 , 6.44737484737 , -112.754090354 , -3.37219238281 , 3.42559814453 , -1.53350830078 
2018/05/16 11:24:48.801222 , 0.2734375 , -0.0126953125 , 4.171875 , 12.7448107448 , 6.44737484737 , -112.754090354 , -3.41796875 , 3.21197509766 , -1.89208984375 
2018/05/16 11:24:49.142535 , 0.01953125 , 0.3017578125 , 4.0673828125 , 12.7448107448 , 6.44737484737 , -112.754090354 , -3.41796875 , 3.21197509766 , -1.89208984375 
2018/05/16 11:24:49.435004 , 0.01953125 , 0.3017578125 , 4.0673828125 , 12.7448107448 , 6.44737484737 , -112.754090354 , -3.41796875 , 3.21197509766 , -1.89208984375 
2018/05/16 11:24:49.727641 , 0.01953125 , 0.3017578125 , 4.0673828125 , 12.7448107448 , 6.44737484737 , -112.754090354 , -5.52368164062 , 4.57000732422 , -0.297546386719 
2018/05/16 11:24:50.019977 , -0.126953125 , 0.3408203125 , 4.0712890625 , 12.7448107448 , 6.44737484737 , -112.754090354 , -5.52368164062 , 4.57000732422 , -0.297546386719 
2018/05/16 11:24:50.312566 , -0.126953125 , 0.3408203125 , 4.0712890625 , 12.7448107448 , 6.44737484737 , -112.754090354 , -5.52368164062 , 4.57000732422 , -0.297546386719 
2018/05/16 11:24:50.605011 , -0.126953125 , 0.3408203125 , 4.0712890625 , 12.7448107448 , 6.44737484737 , -112.754090354 , -5.52368164062 , 4.57000732422 , -0.297546386719 
2018/05/16 11:24:50.897543 , 0.0498046875 , 0.0830078125 , 4.015625 , 13.3445665446 , 6.29743589744 , -112.154334554 , -3.31115722656 , 3.55529785156 , -0.839233398438 
2018/05/16 11:24:51.190171 , 0.0498046875 , 0.0830078125 , 4.015625 , 13.3445665446 , 6.29743589744 , -112.154334554 , -3.31115722656 , 3.55529785156 , -0.839233398438 
2018/05/16 11:24:51.482593 , 0.0498046875 , 0.0830078125 , 4.015625 , 13.3445665446 , 6.29743589744 , -112.154334554 , -3.31115722656 , 3.55529785156 , -0.839233398438 
2018/05/16 11:24:51.775028 , 0.0498046875 , 0.0830078125 , 4.015625 , 13.6444444444 , 5.54774114774 , -111.554578755 , -5.14221191406 , 4.29534912109 , -1.28173828125 
2018/05/16 11:24:52.067637 , 0.0234375 , -0.0126953125 , 4.244140625 , 13.6444444444 , 5.54774114774 , -111.554578755 , -5.14221191406 , 4.29534912109 , -1.28173828125 
2018/05/16 11:24:52.360006 , 0.0234375 , -0.0126953125 , 4.244140625 , 13.6444444444 , 5.54774114774 , -111.554578755 , -5.14221191406 , 4.29534912109 , -1.28173828125 
2018/05/16 11:24:52.652495 , 0.0234375 , -0.0126953125 , 4.244140625 , 13.6444444444 , 5.54774114774 , -111.554578755 , -3.32641601562 , 5.23376464844 , -0.373840332031 
2018/05/16 11:24:52.945029 , 0.048828125 , 0.0 , 3.953125 , 13.6444444444 , 5.54774114774 , -111.554578755 , -3.32641601562 , 5.23376464844 , -0.373840332031 
2018/05/16 11:24:53.237648 , 0.048828125 , 0.0 , 3.953125 , 13.6444444444 , 5.54774114774 , -111.554578755 , -3.32641601562 , 5.23376464844 , -0.373840332031 
2018/05/16 11:24:53.530108 , 0.048828125 , 0.0 , 3.953125 , 13.6444444444 , 5.54774114774 , -111.554578755 , -3.32641601562 , 5.23376464844 , -0.373840332031 
2018/05/16 11:24:53.822702 , 0.048828125 , 0.0 , 3.953125 , 13.6444444444 , 5.54774114774 , -111.554578755 , -2.09045410156 , 4.43267822266 , -1.41143798828 
2018/05/16 11:24:54.115286 , 0.0224609375 , 0.1982421875 , 3.998046875 , 13.6444444444 , 5.54774114774 , -111.554578755 , -2.09045410156 , 4.43267822266 , -1.41143798828 
2018/05/16 11:24:54.407916 , 0.0224609375 , 0.1982421875 , 3.998046875 , 13.6444444444 , 5.54774114774 , -111.554578755 , -2.09045410156 , 4.43267822266 , -1.41143798828 
2018/05/16 11:24:54.700541 , 0.0224609375 , 0.1982421875 , 3.998046875 , 13.6444444444 , 5.54774114774 , -111.554578755 , -3.47900390625 , 5.91278076172 , 1.63269042969 
2018/05/16 11:24:54.993257 , 0.140625 , 0.12109375 , 4.03125 , 11.8451770452 , 6.29743589744 , -111.854456654 , -3.47900390625 , 5.91278076172 , 1.63269042969 
2018/05/16 11:24:55.286249 , 0.140625 , 0.12109375 , 4.03125 , 11.8451770452 , 6.29743589744 , -111.854456654 , -3.47900390625 , 5.91278076172 , 1.63269042969 
2018/05/16 11:24:55.578827 , 0.140625 , 0.12109375 , 4.03125 , 11.8451770452 , 6.29743589744 , -111.854456654 , -3.47900390625 , 5.91278076172 , 1.63269042969 
2018/05/16 11:24:55.871288 , -0.00390625 , 0.0380859375 , 4.0 , 13.3445665446 , 6.29743589744 , -111.554578755 , -2.54058837891 , 3.84521484375 , 0.404357910156 
2018/05/16 11:24:56.164079 , -0.00390625 , 0.0380859375 , 4.0 , 13.3445665446 , 6.29743589744 , -111.554578755 , -2.54058837891 , 3.84521484375 , 0.404357910156 
2018/05/16 11:24:56.456875 , -0.00390625 , 0.0380859375 , 4.0 , 13.3445665446 , 6.29743589744 , -111.554578755 , -2.54058837891 , 3.84521484375 , 0.404357910156 
2018/05/16 11:24:56.749424 , -0.00390625 , 0.0380859375 , 4.0 , 11.6952380952 , 7.19706959707 , -110.654945055 , -4.79888916016 , 4.59289550781 , -1.37329101562 
2018/05/16 11:24:57.042166 , -0.0849609375 , -0.001953125 , 4.08984375 , 11.6952380952 , 7.19706959707 , -110.654945055 , -4.79888916016 , 4.59289550781 , -1.37329101562 
2018/05/16 11:24:57.334892 , -0.0849609375 , -0.001953125 , 4.08984375 , 11.6952380952 , 7.19706959707 , -110.654945055 , -4.79888916016 , 4.59289550781 , -1.37329101562 
2018/05/16 11:24:57.627523 , -0.0849609375 , -0.001953125 , 4.08984375 , 11.6952380952 , 7.19706959707 , -110.654945055 , -4.79888916016 , 4.59289550781 , -1.37329101562 
2018/05/16 11:24:57.920273 , 0.0322265625 , 0.06640625 , 4.103515625 , 13.0446886447 , 6.1474969475 , -111.404639805 , -2.96020507812 , 4.44793701172 , 0.00762939453125 
2018/05/16 11:24:58.213021 , 0.0322265625 , 0.06640625 , 4.103515625 , 13.0446886447 , 6.1474969475 , -111.404639805 , -2.96020507812 , 4.44793701172 , 0.00762939453125 
2018/05/16 11:24:58.505508 , 0.0322265625 , 0.06640625 , 4.103515625 , 13.0446886447 , 6.1474969475 , -111.404639805 , -2.96020507812 , 4.44793701172 , 0.00762939453125 
2018/05/16 11:24:58.798362 , 0.0322265625 , 0.06640625 , 4.103515625 , 12.8947496947 , 7.04713064713 , -110.505006105 , -3.71551513672 , 3.81469726562 , 0.0991821289062 
2018/05/16 11:24:59.091010 , 0.05859375 , 0.296875 , 4.251953125 , 12.8947496947 , 7.04713064713 , -110.505006105 , -3.71551513672 , 3.81469726562 , 0.0991821289062 
2018/05/16 11:24:59.432283 , 0.05859375 , 0.296875 , 4.251953125 , 12.8947496947 , 7.04713064713 , -110.505006105 , -3.71551513672 , 3.81469726562 , 0.0991821289062 
2018/05/16 11:24:59.724961 , 0.05859375 , 0.296875 , 4.251953125 , 12.8947496947 , 7.04713064713 , -110.505006105 , -3.63922119141 , 5.09643554688 , -1.47247314453 
2018/05/16 11:25:00.017677 , -0.0322265625 , 0.2646484375 , 3.7841796875 , 12.4449328449 , 6.44737484737 , -111.704517705 , -3.63922119141 , 5.09643554688 , -1.47247314453 
2018/05/16 11:25:00.310592 , -0.0322265625 , 0.2646484375 , 3.7841796875 , 12.4449328449 , 6.44737484737 , -111.704517705 , -3.63922119141 , 5.09643554688 , -1.47247314453 
2018/05/16 11:25:00.602890 , -0.0322265625 , 0.2646484375 , 3.7841796875 , 12.4449328449 , 6.44737484737 , -111.704517705 , -3.63922119141 , 5.09643554688 , -1.47247314453 
2018/05/16 11:25:00.895502 , 0.1015625 , 0.2421875 , 4.3505859375 , 10.7956043956 , 5.84761904762 , -110.505006105 , -3.04412841797 , 3.59344482422 , -0.869750976562 
2018/05/16 11:25:01.188325 , 0.1015625 , 0.2421875 , 4.3505859375 , 10.7956043956 , 5.84761904762 , -110.505006105 , -3.04412841797 , 3.59344482422 , -0.869750976562 
2018/05/16 11:25:01.480829 , 0.1015625 , 0.2421875 , 4.3505859375 , 10.7956043956 , 5.84761904762 , -110.505006105 , -3.04412841797 , 3.59344482422 , -0.869750976562 
2018/05/16 11:25:01.773411 , 0.1015625 , 0.2421875 , 4.3505859375 , 11.9951159951 , 7.49694749695 , -111.404639805 , -5.60760498047 , 4.09698486328 , -2.45666503906 
2018/05/16 11:25:02.066065 , 0.0126953125 , 0.056640625 , 3.984375 , 11.9951159951 , 7.49694749695 , -111.404639805 , -5.60760498047 , 4.09698486328 , -2.45666503906 
2018/05/16 11:25:02.358855 , 0.0126953125 , 0.056640625 , 3.984375 , 11.9951159951 , 7.49694749695 , -111.404639805 , -5.60760498047 , 4.09698486328 , -2.45666503906 
2018/05/16 11:25:02.651328 , 0.0126953125 , 0.056640625 , 3.984375 , 11.9951159951 , 7.49694749695 , -111.404639805 , -3.74603271484 , 5.19561767578 , -1.93786621094 
2018/05/16 11:25:02.943975 , 0.1865234375 , -0.01953125 , 4.412109375 , 13.0446886447 , 7.49694749695 , -111.404639805 , -3.74603271484 , 5.19561767578 , -1.93786621094 
2018/05/16 11:25:03.236644 , 0.1865234375 , -0.01953125 , 4.412109375 , 13.0446886447 , 7.49694749695 , -111.404639805 , -3.74603271484 , 5.19561767578 , -1.93786621094 
2018/05/16 11:25:03.529187 , 0.1865234375 , -0.01953125 , 4.412109375 , 13.0446886447 , 7.49694749695 , -111.404639805 , -3.74603271484 , 5.19561767578 , -1.93786621094 
2018/05/16 11:25:03.821780 , 0.1865234375 , -0.01953125 , 4.412109375 , 13.3445665446 , 6.29743589744 , -110.804884005 , -6.97326660156 , 3.80706787109 , 0.663757324219 
2018/05/16 11:25:04.114429 , 0.1669921875 , -0.0107421875 , 4.021484375 , 13.3445665446 , 6.29743589744 , -110.804884005 , -6.97326660156 , 3.80706787109 , 0.663757324219 
2018/05/16 11:25:04.407037 , 0.1669921875 , -0.0107421875 , 4.021484375 , 13.3445665446 , 6.29743589744 , -110.804884005 , -6.97326660156 , 3.80706787109 , 0.663757324219 
2018/05/16 11:25:04.699645 , 0.1669921875 , -0.0107421875 , 4.021484375 , 13.3445665446 , 6.29743589744 , -110.804884005 , -4.93621826172 , 3.89099121094 , -0.755310058594 
2018/05/16 11:25:05.041043 , -0.0595703125 , 0.2626953125 , 4.1962890625 , 11.5452991453 , 7.34700854701 , -110.804884005 , -4.93621826172 , 3.89099121094 , -0.755310058594 
2018/05/16 11:25:05.333633 , -0.0595703125 , 0.2626953125 , 4.1962890625 , 11.5452991453 , 7.34700854701 , -110.804884005 , -4.93621826172 , 3.89099121094 , -0.755310058594 
2018/05/16 11:25:05.626190 , -0.0595703125 , 0.2626953125 , 4.1962890625 , 11.5452991453 , 7.34700854701 , -110.804884005 , -4.93621826172 , 3.89099121094 , -0.755310058594 
2018/05/16 11:25:05.918936 , 0.1181640625 , 0.0703125 , 4.2470703125 , 13.4945054945 , 6.44737484737 , -110.355067155 , -3.92913818359 , 3.28063964844 , -0.770568847656 
2018/05/16 11:25:06.211568 , 0.1181640625 , 0.0703125 , 4.2470703125 , 13.4945054945 , 6.44737484737 , -110.355067155 , -3.92913818359 , 3.28063964844 , -0.770568847656 
2018/05/16 11:25:06.504065 , 0.1181640625 , 0.0703125 , 4.2470703125 , 13.4945054945 , 6.44737484737 , -110.355067155 , -3.92913818359 , 3.28063964844 , -0.770568847656 
2018/05/16 11:25:06.796624 , 0.1181640625 , 0.0703125 , 4.2470703125 , 12.5948717949 , 6.29743589744 , -112.604151404 , -3.20434570312 , 4.24957275391 , -1.19018554688 
2018/05/16 11:25:07.089246 , -0.0283203125 , 0.1904296875 , 4.1318359375 , 12.5948717949 , 6.29743589744 , -112.604151404 , -3.20434570312 , 4.24957275391 , -1.19018554688 
2018/05/16 11:25:07.381870 , -0.0283203125 , 0.1904296875 , 4.1318359375 , 12.5948717949 , 6.29743589744 , -112.604151404 , -3.20434570312 , 4.24957275391 , -1.19018554688 
2018/05/16 11:25:07.674423 , -0.0283203125 , 0.1904296875 , 4.1318359375 , 12.5948717949 , 6.29743589744 , -112.604151404 , -3.39508056641 , 3.0517578125 , -0.114440917969 
2018/05/16 11:25:07.967025 , 0.130859375 , 0.2685546875 , 3.9267578125 , 11.2454212454 , 6.29743589744 , -110.505006105 , -3.39508056641 , 3.0517578125 , -0.114440917969 
2018/05/16 11:25:08.259658 , 0.130859375 , 0.2685546875 , 3.9267578125 , 11.2454212454 , 6.29743589744 , -110.505006105 , -3.39508056641 , 3.0517578125 , -0.114440917969 
2018/05/16 11:25:08.552202 , 0.130859375 , 0.2685546875 , 3.9267578125 , 11.2454212454 , 6.29743589744 , -110.505006105 , -3.39508056641 , 3.0517578125 , -0.114440917969 
2018/05/16 11:25:08.844898 , 0.0693359375 , 0.115234375 , 4.068359375 , 12.8947496947 , 6.59731379731 , -111.254700855 , -4.98199462891 , 4.31060791016 , -0.534057617188 
2018/05/16 11:25:09.137600 , 0.0693359375 , 0.115234375 , 4.068359375 , 12.8947496947 , 6.59731379731 , -111.254700855 , -4.98199462891 , 4.31060791016 , -0.534057617188 
2018/05/16 11:25:09.430111 , 0.0693359375 , 0.115234375 , 4.068359375 , 12.8947496947 , 6.59731379731 , -111.254700855 , -4.98199462891 , 4.31060791016 , -0.534057617188 
2018/05/16 11:25:09.722566 , 0.0693359375 , 0.115234375 , 4.068359375 , 12.8947496947 , 6.59731379731 , -111.254700855 , -3.22723388672 , 3.83758544922 , 1.13677978516 
2018/05/16 11:25:10.015240 , 0.142578125 , 0.3779296875 , 4.2001953125 , 13.7943833944 , 6.74725274725 , -110.355067155 , -3.22723388672 , 3.83758544922 , 1.13677978516 
2018/05/16 11:25:10.307752 , 0.142578125 , 0.3779296875 , 4.2001953125 , 13.7943833944 , 6.74725274725 , -110.355067155 , -3.22723388672 , 3.83758544922 , 1.13677978516 
2018/05/16 11:25:10.600267 , 0.142578125 , 0.3779296875 , 4.2001953125 , 13.7943833944 , 6.74725274725 , -110.355067155 , -3.22723388672 , 3.83758544922 , 1.13677978516 
2018/05/16 11:25:10.892855 , -0.1787109375 , 0.08984375 , 4.37109375 , 12.5948717949 , 5.54774114774 , -110.505006105 , -3.97491455078 , 3.60870361328 , -0.877380371094 
2018/05/16 11:25:11.185497 , -0.1787109375 , 0.08984375 , 4.37109375 , 12.5948717949 , 5.54774114774 , -110.505006105 , -3.97491455078 , 3.60870361328 , -0.877380371094 
2018/05/16 11:25:11.477988 , -0.1787109375 , 0.08984375 , 4.37109375 , 12.5948717949 , 5.54774114774 , -110.505006105 , -3.97491455078 , 3.60870361328 , -0.877380371094 
2018/05/16 11:25:11.770584 , -0.1787109375 , 0.08984375 , 4.37109375 , 11.3953601954 , 6.44737484737 , -110.654945055 , -6.39343261719 , 6.34765625 , -0.335693359375 
2018/05/16 11:25:12.063323 , 0.09765625 , 0.1142578125 , 4.2529296875 , 11.3953601954 , 6.44737484737 , -110.654945055 , -6.39343261719 , 6.34765625 , -0.335693359375 
2018/05/16 11:25:12.355743 , 0.09765625 , 0.1142578125 , 4.2529296875 , 11.3953601954 , 6.44737484737 , -110.654945055 , -6.39343261719 , 6.34765625 , -0.335693359375 
2018/05/16 11:25:12.648300 , 0.09765625 , 0.1142578125 , 4.2529296875 , 11.3953601954 , 6.44737484737 , -110.654945055 , -4.50134277344 , 4.40979003906 , 0.289916992188 
2018/05/16 11:25:12.941867 , 0.0927734375 , 0.0947265625 , 3.9580078125 , 11.6952380952 , 6.74725274725 , -111.404639805 , -4.50134277344 , 4.40979003906 , 0.289916992188 
2018/05/16 11:25:13.233669 , 0.0927734375 , 0.0947265625 , 3.9580078125 , 11.6952380952 , 6.74725274725 , -111.404639805 , -4.50134277344 , 4.40979003906 , 0.289916992188 
2018/05/16 11:25:13.574806 , 0.0927734375 , 0.0947265625 , 3.9580078125 , 11.6952380952 , 6.74725274725 , -111.404639805 , -4.50134277344 , 4.40979003906 , 0.289916992188 
2018/05/16 11:25:13.867337 , -0.0078125 , -0.02734375 , 4.05859375 , 11.5452991453 , 6.59731379731 , -110.505006105 , -5.13458251953 , 4.11987304688 , 0.259399414062 
2018/05/16 11:25:14.160044 , -0.0078125 , -0.02734375 , 4.05859375 , 11.5452991453 , 6.59731379731 , -110.505006105 , -5.13458251953 , 4.11987304688 , 0.259399414062 
2018/05/16 11:25:14.452602 , -0.0078125 , -0.02734375 , 4.05859375 , 11.5452991453 , 6.59731379731 , -110.505006105 , -5.13458251953 , 4.11987304688 , 0.259399414062 
2018/05/16 11:25:14.744988 , -0.0078125 , -0.02734375 , 4.05859375 , 13.3445665446 , 6.29743589744 , -111.254700855 , -3.57818603516 , 4.08172607422 , -0.244140625 
2018/05/16 11:25:15.037542 , 0.015625 , 0.009765625 , 4.3193359375 , 13.3445665446 , 6.29743589744 , -111.254700855 , -3.57818603516 , 4.08172607422 , -0.244140625 
2018/05/16 11:25:15.330180 , 0.015625 , 0.009765625 , 4.3193359375 , 13.3445665446 , 6.29743589744 , -111.254700855 , -3.57818603516 , 4.08172607422 , -0.244140625 
2018/05/16 11:25:15.622689 , 0.015625 , 0.009765625 , 4.3193359375 , 13.3445665446 , 6.29743589744 , -111.254700855 , -3.57818603516 , 4.08172607422 , -0.244140625 
2018/05/16 11:25:15.915234 , -0.1162109375 , 0.1044921875 , 4.1044921875 , 13.9443223443 , 7.04713064713 , -108.855677656 , -3.72314453125 , 5.58471679688 , 0.0534057617188 
2018/05/16 11:25:16.207942 , -0.1162109375 , 0.1044921875 , 4.1044921875 , 13.9443223443 , 7.04713064713 , -108.855677656 , -3.72314453125 , 5.58471679688 , 0.0534057617188 
2018/05/16 11:25:16.500355 , -0.1162109375 , 0.1044921875 , 4.1044921875 , 13.9443223443 , 7.04713064713 , -108.855677656 , -3.72314453125 , 5.58471679688 , 0.0534057617188 
2018/05/16 11:25:16.793039 , -0.1162109375 , 0.1044921875 , 4.1044921875 , 12.5948717949 , 7.64688644689 , -112.154334554 , -5.88989257812 , 3.65447998047 , 0.00762939453125 
2018/05/16 11:25:17.085538 , 0.291015625 , 0.2841796875 , 4.2265625 , 12.5948717949 , 7.64688644689 , -112.154334554 , -5.88989257812 , 3.65447998047 , 0.00762939453125 
2018/05/16 11:25:17.377985 , 0.291015625 , 0.2841796875 , 4.2265625 , 12.5948717949 , 7.64688644689 , -112.154334554 , -5.88989257812 , 3.65447998047 , 0.00762939453125 
2018/05/16 11:25:17.670565 , 0.291015625 , 0.2841796875 , 4.2265625 , 12.5948717949 , 7.64688644689 , -112.154334554 , -4.0283203125 , 2.83050537109 , -0.00762939453125 
2018/05/16 11:25:17.963066 , 0.15234375 , 0.09765625 , 4.087890625 , 12.294993895 , 7.34700854701 , -111.854456654 , -4.0283203125 , 2.83050537109 , -0.00762939453125 
2018/05/16 11:25:18.255710 , 0.15234375 , 0.09765625 , 4.087890625 , 12.294993895 , 7.34700854701 , -111.854456654 , -4.0283203125 , 2.83050537109 , -0.00762939453125 
2018/05/16 11:25:18.548204 , 0.15234375 , 0.09765625 , 4.087890625 , 12.294993895 , 7.34700854701 , -111.854456654 , -4.0283203125 , 2.83050537109 , -0.00762939453125 
2018/05/16 11:25:18.840711 , 0.00390625 , 0.2265625 , 4.25390625 , 10.9455433455 , 8.8463980464 , -109.305494505 , -4.01306152344 , 3.65447998047 , 0.030517578125 
2018/05/16 11:25:19.133435 , 0.00390625 , 0.2265625 , 4.25390625 , 10.9455433455 , 8.8463980464 , -109.305494505 , -4.01306152344 , 3.65447998047 , 0.030517578125 
2018/05/16 11:25:19.425851 , 0.00390625 , 0.2265625 , 4.25390625 , 10.9455433455 , 8.8463980464 , -109.305494505 , -4.01306152344 , 3.65447998047 , 0.030517578125 
2018/05/16 11:25:19.718438 , 0.00390625 , 0.2265625 , 4.25390625 , 10.9455433455 , 8.8463980464 , -109.305494505 , -4.63104248047 , 5.4931640625 , -0.595092773438 
2018/05/16 11:25:20.010921 , -0.08203125 , -0.0234375 , 4.232421875 , 13.6444444444 , 8.0967032967 , -110.505006105 , -4.63104248047 , 5.4931640625 , -0.595092773438 
2018/05/16 11:25:20.303636 , -0.08203125 , -0.0234375 , 4.232421875 , 13.6444444444 , 8.0967032967 , -110.505006105 , -4.63104248047 , 5.4931640625 , -0.595092773438 
2018/05/16 11:25:20.596090 , -0.08203125 , -0.0234375 , 4.232421875 , 13.6444444444 , 8.0967032967 , -110.505006105 , -4.63104248047 , 5.4931640625 , -0.595092773438 
2018/05/16 11:25:20.888673 , -0.1083984375 , -0.04296875 , 3.8623046875 , 12.7448107448 , 7.19706959707 , -113.053968254 , -4.32586669922 , 4.00543212891 , -0.625610351562 
2018/05/16 11:25:21.181270 , -0.1083984375 , -0.04296875 , 3.8623046875 , 12.7448107448 , 7.19706959707 , -113.053968254 , -4.32586669922 , 4.00543212891 , -0.625610351562 
2018/05/16 11:25:21.473755 , -0.1083984375 , -0.04296875 , 3.8623046875 , 12.7448107448 , 7.19706959707 , -113.053968254 , -4.32586669922 , 4.00543212891 , -0.625610351562 
2018/05/16 11:25:21.766172 , -0.1083984375 , -0.04296875 , 3.8623046875 , 12.7448107448 , 7.19706959707 , -113.053968254 , -4.48608398438 , 3.75366210938 , -0.617980957031 
2018/05/16 11:25:22.058768 , 0.1513671875 , 0.2216796875 , 4.2431640625 , 12.7448107448 , 7.19706959707 , -113.053968254 , -4.48608398438 , 3.75366210938 , -0.617980957031 
2018/05/16 11:25:22.351247 , 0.1513671875 , 0.2216796875 , 4.2431640625 , 12.7448107448 , 7.19706959707 , -113.053968254 , -4.48608398438 , 3.75366210938 , -0.617980957031 
2018/05/16 11:25:22.643835 , 0.1513671875 , 0.2216796875 , 4.2431640625 , 12.7448107448 , 7.19706959707 , -113.053968254 , -3.7841796875 , 4.46319580078 , -0.556945800781 
2018/05/16 11:25:22.936343 , 0.064453125 , 0.24609375 , 4.3203125 , 11.9951159951 , 6.1474969475 , -112.004395604 , -3.7841796875 , 4.46319580078 , -0.556945800781 
2018/05/16 11:25:23.229004 , 0.064453125 , 0.24609375 , 4.3203125 , 11.9951159951 , 6.1474969475 , -112.004395604 , -3.7841796875 , 4.46319580078 , -0.556945800781 
2018/05/16 11:25:23.521381 , 0.064453125 , 0.24609375 , 4.3203125 , 11.9951159951 , 6.1474969475 , -112.004395604 , -3.7841796875 , 4.46319580078 , -0.556945800781 
2018/05/16 11:25:23.813900 , 0.064453125 , 0.24609375 , 4.3203125 , 11.9951159951 , 6.1474969475 , -112.004395604 , -3.41033935547 , 2.96020507812 , 0.320434570312 
2018/05/16 11:25:24.106673 , 0.2607421875 , 0.13671875 , 4.306640625 , 11.9951159951 , 6.1474969475 , -112.004395604 , -3.41033935547 , 2.96020507812 , 0.320434570312 
2018/05/16 11:25:24.399139 , 0.2607421875 , 0.13671875 , 4.306640625 , 11.9951159951 , 6.1474969475 , -112.004395604 , -3.41033935547 , 2.96020507812 , 0.320434570312 
2018/05/16 11:25:24.691558 , 0.2607421875 , 0.13671875 , 4.306640625 , 11.9951159951 , 6.1474969475 , -112.004395604 , -3.00598144531 , 4.19616699219 , -0.961303710938 
2018/05/16 11:25:24.984068 , 0.17578125 , -0.1298828125 , 3.970703125 , 11.2454212454 , 8.69645909646 , -111.254700855 , -3.00598144531 , 4.19616699219 , -0.961303710938 
2018/05/16 11:25:25.276628 , 0.17578125 , -0.1298828125 , 3.970703125 , 11.2454212454 , 8.69645909646 , -111.254700855 , -3.00598144531 , 4.19616699219 , -0.961303710938 
2018/05/16 11:25:25.569168 , 0.17578125 , -0.1298828125 , 3.970703125 , 11.2454212454 , 8.69645909646 , -111.254700855 , -3.00598144531 , 4.19616699219 , -0.961303710938 
2018/05/16 11:25:25.861671 , -0.1484375 , 0.2265625 , 4.2880859375 , 11.2454212454 , 8.69645909646 , -111.254700855 , -2.67791748047 , 5.50079345703 , -0.930786132812 
2018/05/16 11:25:26.154245 , -0.1484375 , 0.2265625 , 4.2880859375 , 11.2454212454 , 8.69645909646 , -111.254700855 , -2.67791748047 , 5.50079345703 , -0.930786132812 
2018/05/16 11:25:26.446808 , -0.1484375 , 0.2265625 , 4.2880859375 , 11.2454212454 , 8.69645909646 , -111.254700855 , -2.67791748047 , 5.50079345703 , -0.930786132812 
2018/05/16 11:25:26.739247 , -0.1484375 , 0.2265625 , 4.2880859375 , 12.294993895 , 6.59731379731 , -111.554578755 , -5.42449951172 , 5.80596923828 , 0.1220703125 
2018/05/16 11:25:27.031758 , 0.001953125 , 0.185546875 , 4.361328125 , 12.294993895 , 6.59731379731 , -111.554578755 , -5.42449951172 , 5.80596923828 , 0.1220703125 
2018/05/16 11:25:27.324316 , 0.001953125 , 0.185546875 , 4.361328125 , 12.294993895 , 6.59731379731 , -111.554578755 , -5.42449951172 , 5.80596923828 , 0.1220703125 
2018/05/16 11:25:27.616806 , 0.001953125 , 0.185546875 , 4.361328125 , 12.294993895 , 6.59731379731 , -111.554578755 , -5.42449951172 , 5.80596923828 , 0.1220703125 
2018/05/16 11:25:27.909352 , 0.1572265625 , 0.328125 , 4.0009765625 , 12.294993895 , 6.59731379731 , -111.554578755 , -5.40161132812 , 5.72967529297 , -0.587463378906 
2018/05/16 11:25:28.201923 , 0.1572265625 , 0.328125 , 4.0009765625 , 12.294993895 , 6.59731379731 , -111.554578755 , -5.40161132812 , 5.72967529297 , -0.587463378906 
2018/05/16 11:25:28.494413 , 0.1572265625 , 0.328125 , 4.0009765625 , 12.294993895 , 6.59731379731 , -111.554578755 , -5.40161132812 , 5.72967529297 , -0.587463378906 
2018/05/16 11:25:28.786949 , 0.1572265625 , 0.328125 , 4.0009765625 , 13.0446886447 , 5.3978021978 , -111.704517705 , -2.27355957031 , 4.46319580078 , -0.419616699219 
2018/05/16 11:25:29.079433 , -0.2412109375 , 0.0322265625 , 4.3046875 , 13.0446886447 , 5.3978021978 , -111.704517705 , -2.27355957031 , 4.46319580078 , -0.419616699219 
2018/05/16 11:25:29.372009 , -0.2412109375 , 0.0322265625 , 4.3046875 , 13.0446886447 , 5.3978021978 , -111.704517705 , -2.27355957031 , 4.46319580078 , -0.419616699219 
2018/05/16 11:25:29.664714 , -0.2412109375 , 0.0322265625 , 4.3046875 , 13.0446886447 , 5.3978021978 , -111.704517705 , -4.79888916016 , 4.60052490234 , -0.495910644531 
2018/05/16 11:25:29.957059 , -0.2080078125 , 0.2412109375 , 4.1083984375 , 13.0446886447 , 5.3978021978 , -111.704517705 , -4.79888916016 , 4.60052490234 , -0.495910644531 
2018/05/16 11:25:30.249623 , -0.2080078125 , 0.2412109375 , 4.1083984375 , 13.0446886447 , 5.3978021978 , -111.704517705 , -4.79888916016 , 4.60052490234 , -0.495910644531 
2018/05/16 11:25:30.542088 , -0.2080078125 , 0.2412109375 , 4.1083984375 , 13.0446886447 , 5.3978021978 , -111.704517705 , -4.79888916016 , 4.60052490234 , -0.495910644531 
2018/05/16 11:25:30.837123 , -0.2080078125 , 0.2412109375 , 4.1083984375 , 13.0446886447 , 5.3978021978 , -111.704517705 , -4.17327880859 , 3.87573242188 , -0.160217285156 
2018/05/16 11:25:31.127342 , 0.0302734375 , 0.287109375 , 4.0283203125 , 13.0446886447 , 5.3978021978 , -111.704517705 , -4.17327880859 , 3.87573242188 , -0.160217285156 
2018/05/16 11:25:31.419656 , 0.0302734375 , 0.287109375 , 4.0283203125 , 13.0446886447 , 5.3978021978 , -111.704517705 , -4.17327880859 , 3.87573242188 , -0.160217285156 
2018/05/16 11:25:31.712168 , 0.0302734375 , 0.287109375 , 4.0283203125 , 13.0446886447 , 5.3978021978 , -111.704517705 , -3.85284423828 , 5.23376464844 , 0.129699707031 
2018/05/16 11:25:32.004706 , 0.103515625 , 0.08203125 , 4.119140625 , 11.8451770452 , 6.59731379731 , -111.254700855 , -3.85284423828 , 5.23376464844 , 0.129699707031 
2018/05/16 11:25:32.297226 , 0.103515625 , 0.08203125 , 4.119140625 , 11.8451770452 , 6.59731379731 , -111.254700855 , -3.85284423828 , 5.23376464844 , 0.129699707031 
2018/05/16 11:25:32.589751 , 0.103515625 , 0.08203125 , 4.119140625 , 11.8451770452 , 6.59731379731 , -111.254700855 , -3.85284423828 , 5.23376464844 , 0.129699707031 
2018/05/16 11:25:32.882307 , 0.009765625 , 0.0869140625 , 4.3427734375 , 10.9455433455 , 5.69768009768 , -111.704517705 , -2.64739990234 , 4.7607421875 , -0.106811523438 
2018/05/16 11:25:33.174897 , 0.009765625 , 0.0869140625 , 4.3427734375 , 10.9455433455 , 5.69768009768 , -111.704517705 , -2.64739990234 , 4.7607421875 , -0.106811523438 
2018/05/16 11:25:33.467388 , 0.009765625 , 0.0869140625 , 4.3427734375 , 10.9455433455 , 5.69768009768 , -111.704517705 , -2.64739990234 , 4.7607421875 , -0.106811523438 
2018/05/16 11:25:33.759820 , 0.009765625 , 0.0869140625 , 4.3427734375 , 10.9455433455 , 5.69768009768 , -111.704517705 , -4.01306152344 , 4.31823730469 , 0.228881835938 
2018/05/16 11:25:34.052478 , -0.0419921875 , 0.154296875 , 4.0439453125 , 10.9455433455 , 5.69768009768 , -111.704517705 , -4.01306152344 , 4.31823730469 , 0.228881835938 
2018/05/16 11:25:34.344849 , -0.0419921875 , 0.154296875 , 4.0439453125 , 10.9455433455 , 5.69768009768 , -111.704517705 , -4.01306152344 , 4.31823730469 , 0.228881835938 
2018/05/16 11:25:34.637461 , -0.0419921875 , 0.154296875 , 4.0439453125 , 10.9455433455 , 5.69768009768 , -111.704517705 , -4.01306152344 , 4.31823730469 , 0.228881835938 
2018/05/16 11:25:34.929843 , 0.279296875 , 0.125 , 3.9931640625 , 10.9455433455 , 5.69768009768 , -111.704517705 , -3.173828125 , 4.72259521484 , 0.54931640625 
2018/05/16 11:25:35.222384 , 0.279296875 , 0.125 , 3.9931640625 , 10.9455433455 , 5.69768009768 , -111.704517705 , -3.173828125 , 4.72259521484 , 0.54931640625 
2018/05/16 11:25:35.514905 , 0.279296875 , 0.125 , 3.9931640625 , 10.9455433455 , 5.69768009768 , -111.704517705 , -3.173828125 , 4.72259521484 , 0.54931640625 
2018/05/16 11:25:35.807420 , 0.279296875 , 0.125 , 3.9931640625 , 11.8451770452 , 5.54774114774 , -111.554578755 , -6.77490234375 , 5.22613525391 , -0.534057617188 
2018/05/16 11:25:36.100108 , 0.2470703125 , -0.0654296875 , 4.1005859375 , 11.8451770452 , 5.54774114774 , -111.554578755 , -6.77490234375 , 5.22613525391 , -0.534057617188 
2018/05/16 11:25:36.392584 , 0.2470703125 , -0.0654296875 , 4.1005859375 , 11.8451770452 , 5.54774114774 , -111.554578755 , -6.77490234375 , 5.22613525391 , -0.534057617188 
2018/05/16 11:25:36.685010 , 0.2470703125 , -0.0654296875 , 4.1005859375 , 11.8451770452 , 5.54774114774 , -111.554578755 , -3.86810302734 , 4.00543212891 , 1.16729736328 
2018/05/16 11:25:36.977498 , -0.0888671875 , 0.064453125 , 4.3525390625 , 11.9951159951 , 5.69768009768 , -110.654945055 , -3.86810302734 , 4.00543212891 , 1.16729736328 
2018/05/16 11:25:37.270173 , -0.0888671875 , 0.064453125 , 4.3525390625 , 11.9951159951 , 5.69768009768 , -110.654945055 , -3.86810302734 , 4.00543212891 , 1.16729736328 
2018/05/16 11:25:37.562519 , -0.0888671875 , 0.064453125 , 4.3525390625 , 11.9951159951 , 5.69768009768 , -110.654945055 , -3.86810302734 , 4.00543212891 , 1.16729736328 
2018/05/16 11:25:37.855147 , 0.0869140625 , 0.1357421875 , 4.2294921875 , 12.4449328449 , 5.69768009768 , -111.104761905 , -3.92150878906 , 4.06646728516 , -0.297546386719 
2018/05/16 11:25:38.147685 , 0.0869140625 , 0.1357421875 , 4.2294921875 , 12.4449328449 , 5.69768009768 , -111.104761905 , -3.92150878906 , 4.06646728516 , -0.297546386719 
2018/05/16 11:25:38.440226 , 0.0869140625 , 0.1357421875 , 4.2294921875 , 12.4449328449 , 5.69768009768 , -111.104761905 , -3.92150878906 , 4.06646728516 , -0.297546386719 
2018/05/16 11:25:38.732615 , 0.0869140625 , 0.1357421875 , 4.2294921875 , 12.4449328449 , 5.69768009768 , -111.104761905 , -4.14276123047 , 3.86810302734 , -1.60980224609 
2018/05/16 11:25:39.025132 , 0.0498046875 , 0.1484375 , 3.958984375 , 11.9951159951 , 7.49694749695 , -110.654945055 , -4.14276123047 , 3.86810302734 , -1.60980224609 
2018/05/16 11:25:39.317663 , 0.0498046875 , 0.1484375 , 3.958984375 , 11.9951159951 , 7.49694749695 , -110.654945055 , -4.14276123047 , 3.86810302734 , -1.60980224609 
2018/05/16 11:25:39.610117 , 0.0498046875 , 0.1484375 , 3.958984375 , 11.9951159951 , 7.49694749695 , -110.654945055 , -4.14276123047 , 3.86810302734 , -1.60980224609 
2018/05/16 11:25:39.902630 , 0.03515625 , 0.3388671875 , 4.1806640625 , 12.7448107448 , 7.49694749695 , -110.355067155 , -4.47082519531 , 3.48663330078 , -0.091552734375 
2018/05/16 11:25:40.195289 , 0.03515625 , 0.3388671875 , 4.1806640625 , 12.7448107448 , 7.49694749695 , -110.355067155 , -4.47082519531 , 3.48663330078 , -0.091552734375 
2018/05/16 11:25:40.487680 , 0.03515625 , 0.3388671875 , 4.1806640625 , 12.7448107448 , 7.49694749695 , -110.355067155 , -4.47082519531 , 3.48663330078 , -0.091552734375 
2018/05/16 11:25:40.780248 , 0.03515625 , 0.3388671875 , 4.1806640625 , 12.4449328449 , 6.74725274725 , -111.404639805 , -2.36511230469 , 4.5166015625 , 0.732421875 
2018/05/16 11:25:41.072733 , 0.009765625 , 0.029296875 , 4.2705078125 , 12.4449328449 , 6.74725274725 , -111.404639805 , -2.36511230469 , 4.5166015625 , 0.732421875 
2018/05/16 11:25:41.365242 , 0.009765625 , 0.029296875 , 4.2705078125 , 12.4449328449 , 6.74725274725 , -111.404639805 , -2.36511230469 , 4.5166015625 , 0.732421875 
2018/05/16 11:25:41.657692 , 0.009765625 , 0.029296875 , 4.2705078125 , 12.4449328449 , 6.74725274725 , -111.404639805 , -3.96728515625 , 5.13458251953 , 0.503540039062 
2018/05/16 11:25:41.950262 , -0.0986328125 , 0.22265625 , 4.005859375 , 12.8947496947 , 6.29743589744 , -110.205128205 , -3.96728515625 , 5.13458251953 , 0.503540039062 
2018/05/16 11:25:42.242861 , -0.0986328125 , 0.22265625 , 4.005859375 , 12.8947496947 , 6.29743589744 , -110.205128205 , -3.96728515625 , 5.13458251953 , 0.503540039062 
2018/05/16 11:25:42.535311 , -0.0986328125 , 0.22265625 , 4.005859375 , 12.8947496947 , 6.29743589744 , -110.205128205 , -3.96728515625 , 5.13458251953 , 0.503540039062 
2018/05/16 11:25:42.827781 , -0.0986328125 , 0.22265625 , 4.005859375 , 12.294993895 , 6.29743589744 , -112.604151404 , -3.93676757812 , 3.95202636719 , 1.64794921875 
2018/05/16 11:25:43.120345 , -0.09375 , 0.2978515625 , 4.2216796875 , 12.294993895 , 6.29743589744 , -112.604151404 , -3.93676757812 , 3.95202636719 , 1.64794921875 
2018/05/16 11:25:43.412854 , -0.09375 , 0.2978515625 , 4.2216796875 , 12.294993895 , 6.29743589744 , -112.604151404 , -3.93676757812 , 3.95202636719 , 1.64794921875 
2018/05/16 11:25:43.705347 , -0.09375 , 0.2978515625 , 4.2216796875 , 12.294993895 , 6.29743589744 , -112.604151404 , -4.43267822266 , 4.48608398438 , -0.503540039062 
2018/05/16 11:25:43.997795 , -0.2880859375 , 0.162109375 , 4.1669921875 , 10.4957264957 , 7.04713064713 , -110.505006105 , -4.43267822266 , 4.48608398438 , -0.503540039062 
2018/05/16 11:25:44.290528 , -0.2880859375 , 0.162109375 , 4.1669921875 , 10.4957264957 , 7.04713064713 , -110.505006105 , -4.43267822266 , 4.48608398438 , -0.503540039062 
2018/05/16 11:25:44.582861 , -0.2880859375 , 0.162109375 , 4.1669921875 , 10.4957264957 , 7.04713064713 , -110.505006105 , -4.43267822266 , 4.48608398438 , -0.503540039062 
2018/05/16 11:25:44.875452 , 0.02734375 , 0.048828125 , 4.1533203125 , 11.3953601954 , 6.74725274725 , -112.004395604 , -6.14929199219 , 5.69152832031 , -0.999450683594 
2018/05/16 11:25:45.167991 , 0.02734375 , 0.048828125 , 4.1533203125 , 11.3953601954 , 6.74725274725 , -112.004395604 , -6.14929199219 , 5.69152832031 , -0.999450683594 
2018/05/16 11:25:45.460464 , 0.02734375 , 0.048828125 , 4.1533203125 , 11.3953601954 , 6.74725274725 , -112.004395604 , -6.14929199219 , 5.69152832031 , -0.999450683594 
2018/05/16 11:25:45.752926 , 0.02734375 , 0.048828125 , 4.1533203125 , 13.0446886447 , 5.3978021978 , -110.654945055 , -4.69970703125 , 5.126953125 , 0.450134277344 
2018/05/16 11:25:46.045361 , -0.1787109375 , 0.2421875 , 4.033203125 , 13.0446886447 , 5.3978021978 , -110.654945055 , -4.69970703125 , 5.126953125 , 0.450134277344 
2018/05/16 11:25:46.337916 , -0.1787109375 , 0.2421875 , 4.033203125 , 13.0446886447 , 5.3978021978 , -110.654945055 , -4.69970703125 , 5.126953125 , 0.450134277344 
2018/05/16 11:25:46.630384 , -0.1787109375 , 0.2421875 , 4.033203125 , 13.0446886447 , 5.3978021978 , -110.654945055 , -4.69970703125 , 5.126953125 , 0.450134277344 
2018/05/16 11:25:46.922977 , 0.1435546875 , 0.0478515625 , 4.318359375 , 12.4449328449 , 7.49694749695 , -111.704517705 , -4.91333007812 , 3.01361083984 , -0.663757324219 
2018/05/16 11:25:47.215576 , 0.1435546875 , 0.0478515625 , 4.318359375 , 12.4449328449 , 7.49694749695 , -111.704517705 , -4.91333007812 , 3.01361083984 , -0.663757324219 
2018/05/16 11:25:47.507947 , 0.1435546875 , 0.0478515625 , 4.318359375 , 12.4449328449 , 7.49694749695 , -111.704517705 , -4.91333007812 , 3.01361083984 , -0.663757324219 
2018/05/16 11:25:47.800487 , 0.1435546875 , 0.0478515625 , 4.318359375 , 10.7956043956 , 6.59731379731 , -110.804884005 , -4.31823730469 , 5.91278076172 , -0.79345703125 
2018/05/16 11:25:48.093114 , 0.2470703125 , 0.2109375 , 4.080078125 , 10.7956043956 , 6.59731379731 , -110.804884005 , -4.31823730469 , 5.91278076172 , -0.79345703125 
2018/05/16 11:25:48.385501 , 0.2470703125 , 0.2109375 , 4.080078125 , 10.7956043956 , 6.59731379731 , -110.804884005 , -4.31823730469 , 5.91278076172 , -0.79345703125 
2018/05/16 11:25:48.678004 , 0.2470703125 , 0.2109375 , 4.080078125 , 10.7956043956 , 6.59731379731 , -110.804884005 , -4.47845458984 , 3.71551513672 , 0.648498535156 
2018/05/16 11:25:48.970559 , -0.021484375 , 0.2138671875 , 4.2734375 , 10.9455433455 , 6.44737484737 , -110.055189255 , -4.47845458984 , 3.71551513672 , 0.648498535156 
2018/05/16 11:25:49.263050 , -0.021484375 , 0.2138671875 , 4.2734375 , 10.9455433455 , 6.44737484737 , -110.055189255 , -4.47845458984 , 3.71551513672 , 0.648498535156 
2018/05/16 11:25:49.555516 , -0.021484375 , 0.2138671875 , 4.2734375 , 10.9455433455 , 6.44737484737 , -110.055189255 , -4.47845458984 , 3.71551513672 , 0.648498535156 
2018/05/16 11:25:49.848000 , -0.0908203125 , 0.1767578125 , 4.1396484375 , 11.5452991453 , 7.04713064713 , -110.205128205 , -3.08227539062 , 6.20269775391 , -0.579833984375 
2018/05/16 11:25:50.140598 , -0.0908203125 , 0.1767578125 , 4.1396484375 , 11.5452991453 , 7.04713064713 , -110.205128205 , -3.08227539062 , 6.20269775391 , -0.579833984375 
2018/05/16 11:25:50.433224 , -0.0908203125 , 0.1767578125 , 4.1396484375 , 11.5452991453 , 7.04713064713 , -110.205128205 , -3.08227539062 , 6.20269775391 , -0.579833984375 
2018/05/16 11:25:50.725583 , -0.0908203125 , 0.1767578125 , 4.1396484375 , 11.5452991453 , 7.04713064713 , -110.205128205 , -2.90679931641 , 5.20324707031 , -0.717163085938 
2018/05/16 11:25:51.018158 , 0.1171875 , 0.1337890625 , 4.1796875 , 13.3445665446 , 6.59731379731 , -110.205128205 , -2.90679931641 , 5.20324707031 , -0.717163085938 
2018/05/16 11:25:51.310621 , 0.1171875 , 0.1337890625 , 4.1796875 , 13.3445665446 , 6.59731379731 , -110.205128205 , -2.90679931641 , 5.20324707031 , -0.717163085938 
2018/05/16 11:25:51.603061 , 0.1171875 , 0.1337890625 , 4.1796875 , 13.3445665446 , 6.59731379731 , -110.205128205 , -2.90679931641 , 5.20324707031 , -0.717163085938 
2018/05/16 11:25:51.895626 , 0.10546875 , -0.0263671875 , 4.453125 , 12.5948717949 , 8.39658119658 , -111.254700855 , -5.72967529297 , 5.65338134766 , 0.846862792969 
2018/05/16 11:25:52.188133 , 0.10546875 , -0.0263671875 , 4.453125 , 12.5948717949 , 8.39658119658 , -111.254700855 , -5.72967529297 , 5.65338134766 , 0.846862792969 
2018/05/16 11:25:52.480628 , 0.10546875 , -0.0263671875 , 4.453125 , 12.5948717949 , 8.39658119658 , -111.254700855 , -5.72967529297 , 5.65338134766 , 0.846862792969 
2018/05/16 11:25:52.773102 , 0.10546875 , -0.0263671875 , 4.453125 , 11.5452991453 , 6.59731379731 , -111.254700855 , -4.40979003906 , 5.66864013672 , -1.96838378906 
2018/05/16 11:25:53.065569 , 0.064453125 , 0.068359375 , 3.865234375 , 11.5452991453 , 6.59731379731 , -111.254700855 , -4.40979003906 , 5.66864013672 , -1.96838378906 
2018/05/16 11:25:53.358136 , 0.064453125 , 0.068359375 , 3.865234375 , 11.5452991453 , 6.59731379731 , -111.254700855 , -4.40979003906 , 5.66864013672 , -1.96838378906 
2018/05/16 11:25:53.650582 , 0.064453125 , 0.068359375 , 3.865234375 , 11.5452991453 , 6.59731379731 , -111.254700855 , -4.04357910156 , 6.51550292969 , -0.923156738281 
2018/05/16 11:25:53.943154 , -0.193359375 , 0.056640625 , 4.033203125 , 13.3445665446 , 6.59731379731 , -111.254700855 , -4.04357910156 , 6.51550292969 , -0.923156738281 
2018/05/16 11:25:54.235700 , -0.193359375 , 0.056640625 , 4.033203125 , 13.3445665446 , 6.59731379731 , -111.254700855 , -4.04357910156 , 6.51550292969 , -0.923156738281 
2018/05/16 11:25:54.528137 , -0.193359375 , 0.056640625 , 4.033203125 , 13.3445665446 , 6.59731379731 , -111.254700855 , -4.04357910156 , 6.51550292969 , -0.923156738281 
2018/05/16 11:25:54.820621 , -0.193359375 , 0.056640625 , 4.033203125 , 12.7448107448 , 6.44737484737 , -112.004395604 , -3.69262695312 , 4.38690185547 , 0.160217285156 
2018/05/16 11:25:55.113331 , 0.044921875 , 0.189453125 , 4.05078125 , 12.7448107448 , 6.44737484737 , -112.004395604 , -3.69262695312 , 4.38690185547 , 0.160217285156 
2018/05/16 11:25:55.405656 , 0.044921875 , 0.189453125 , 4.05078125 , 12.7448107448 , 6.44737484737 , -112.004395604 , -3.69262695312 , 4.38690185547 , 0.160217285156 
2018/05/16 11:25:55.698244 , 0.044921875 , 0.189453125 , 4.05078125 , 12.7448107448 , 6.44737484737 , -112.004395604 , -3.44085693359 , 2.67791748047 , -0.198364257812 
2018/05/16 11:25:55.990686 , 0.3564453125 , -0.0244140625 , 4.30078125 , 12.4449328449 , 6.44737484737 , -111.104761905 , -3.44085693359 , 2.67791748047 , -0.198364257812 
2018/05/16 11:25:56.283282 , 0.3564453125 , -0.0244140625 , 4.30078125 , 12.4449328449 , 6.44737484737 , -111.104761905 , -3.44085693359 , 2.67791748047 , -0.198364257812 
2018/05/16 11:25:56.575738 , 0.3564453125 , -0.0244140625 , 4.30078125 , 12.4449328449 , 6.44737484737 , -111.104761905 , -3.44085693359 , 2.67791748047 , -0.198364257812 
2018/05/16 11:25:56.868337 , 0.0380859375 , -0.115234375 , 3.927734375 , 12.294993895 , 5.54774114774 , -111.554578755 , -4.39453125 , 5.50842285156 , -0.175476074219 
2018/05/16 11:25:57.160847 , 0.0380859375 , -0.115234375 , 3.927734375 , 12.294993895 , 5.54774114774 , -111.554578755 , -4.39453125 , 5.50842285156 , -0.175476074219 
2018/05/16 11:25:57.453318 , 0.0380859375 , -0.115234375 , 3.927734375 , 12.294993895 , 5.54774114774 , -111.554578755 , -4.39453125 , 5.50842285156 , -0.175476074219 
2018/05/16 11:25:57.745703 , 0.0380859375 , -0.115234375 , 3.927734375 , 13.9443223443 , 7.04713064713 , -110.205128205 , -3.23486328125 , 4.19616699219 , 2.00653076172 
2018/05/16 11:25:58.038607 , 0.1484375 , -0.1162109375 , 4.2099609375 , 13.9443223443 , 7.04713064713 , -110.205128205 , -3.23486328125 , 4.19616699219 , 2.00653076172 
2018/05/16 11:25:58.331200 , 0.1484375 , -0.1162109375 , 4.2099609375 , 13.9443223443 , 7.04713064713 , -110.205128205 , -3.23486328125 , 4.19616699219 , 2.00653076172 
2018/05/16 11:25:58.624232 , 0.1484375 , -0.1162109375 , 4.2099609375 , 13.9443223443 , 7.04713064713 , -110.205128205 , -3.23486328125 , 4.19616699219 , 2.00653076172 
2018/05/16 11:25:58.917105 , -0.1064453125 , 0.2578125 , 3.9609375 , 12.294993895 , 6.59731379731 , -110.505006105 , -2.64739990234 , 3.173828125 , 0.717163085938 
2018/05/16 11:25:59.210134 , -0.1064453125 , 0.2578125 , 3.9609375 , 12.294993895 , 6.59731379731 , -110.505006105 , -2.64739990234 , 3.173828125 , 0.717163085938 
2018/05/16 11:25:59.503036 , -0.1064453125 , 0.2578125 , 3.9609375 , 12.294993895 , 6.59731379731 , -110.505006105 , -2.64739990234 , 3.173828125 , 0.717163085938 
2018/05/16 11:25:59.795948 , -0.1064453125 , 0.2578125 , 3.9609375 , 12.7448107448 , 7.49694749695 , -111.104761905 , -5.76019287109 , 6.58416748047 , -1.98364257812 
2018/05/16 11:26:00.089070 , 0.0244140625 , 0.0654296875 , 4.005859375 , 12.7448107448 , 7.49694749695 , -111.104761905 , -5.76019287109 , 6.58416748047 , -1.98364257812 
2018/05/16 11:26:00.381897 , 0.0244140625 , 0.0654296875 , 4.005859375 , 12.7448107448 , 7.49694749695 , -111.104761905 , -5.76019287109 , 6.58416748047 , -1.98364257812 
2018/05/16 11:26:00.674780 , 0.0244140625 , 0.0654296875 , 4.005859375 , 12.7448107448 , 7.49694749695 , -111.104761905 , -4.92858886719 , 4.43267822266 , -0.160217285156 
2018/05/16 11:26:00.967681 , 0.09375 , 0.1181640625 , 3.8154296875 , 11.9951159951 , 6.74725274725 , -109.305494505 , -4.92858886719 , 4.43267822266 , -0.160217285156 
2018/05/16 11:26:01.260853 , 0.09375 , 0.1181640625 , 3.8154296875 , 11.9951159951 , 6.74725274725 , -109.305494505 , -4.92858886719 , 4.43267822266 , -0.160217285156 
2018/05/16 11:26:01.553502 , 0.09375 , 0.1181640625 , 3.8154296875 , 11.9951159951 , 6.74725274725 , -109.305494505 , -4.92858886719 , 4.43267822266 , -0.160217285156 
2018/05/16 11:26:01.846423 , 0.095703125 , -0.1337890625 , 4.4140625 , 11.9951159951 , 6.74725274725 , -111.704517705 , -5.86700439453 , 5.82885742188 , -0.42724609375 
2018/05/16 11:26:02.139446 , 0.095703125 , -0.1337890625 , 4.4140625 , 11.9951159951 , 6.74725274725 , -111.704517705 , -5.86700439453 , 5.82885742188 , -0.42724609375 
2018/05/16 11:26:02.432401 , 0.095703125 , -0.1337890625 , 4.4140625 , 11.9951159951 , 6.74725274725 , -111.704517705 , -5.86700439453 , 5.82885742188 , -0.42724609375 
2018/05/16 11:26:02.725178 , 0.095703125 , -0.1337890625 , 4.4140625 , 11.9951159951 , 6.74725274725 , -111.704517705 , -3.67736816406 , 5.9814453125 , -0.953674316406 
2018/05/16 11:26:03.018074 , -0.0302734375 , 0.103515625 , 4.08203125 , 11.6952380952 , 6.74725274725 , -111.404639805 , -3.67736816406 , 5.9814453125 , -0.953674316406 
2018/05/16 11:26:03.310972 , -0.0302734375 , 0.103515625 , 4.08203125 , 11.6952380952 , 6.74725274725 , -111.404639805 , -3.67736816406 , 5.9814453125 , -0.953674316406 
2018/05/16 11:26:03.603866 , -0.0302734375 , 0.103515625 , 4.08203125 , 11.6952380952 , 6.74725274725 , -111.404639805 , -3.67736816406 , 5.9814453125 , -0.953674316406 
2018/05/16 11:26:03.896760 , -0.048828125 , 0.1328125 , 3.9892578125 , 12.7448107448 , 8.54652014652 , -112.454212454 , -4.65393066406 , 3.77655029297 , 0.1220703125 
2018/05/16 11:26:04.189727 , -0.048828125 , 0.1328125 , 3.9892578125 , 12.7448107448 , 8.54652014652 , -112.454212454 , -4.65393066406 , 3.77655029297 , 0.1220703125 
2018/05/16 11:26:04.482559 , -0.048828125 , 0.1328125 , 3.9892578125 , 12.7448107448 , 8.54652014652 , -112.454212454 , -4.65393066406 , 3.77655029297 , 0.1220703125 
2018/05/16 11:26:04.775506 , -0.048828125 , 0.1328125 , 3.9892578125 , 12.7448107448 , 8.54652014652 , -112.454212454 , -5.96618652344 , 4.49371337891 , 0.190734863281 
2018/05/16 11:26:05.068296 , -0.08984375 , -0.109375 , 4.1513671875 , 12.7448107448 , 8.54652014652 , -112.454212454 , -5.96618652344 , 4.49371337891 , 0.190734863281 
2018/05/16 11:26:05.361187 , -0.08984375 , -0.109375 , 4.1513671875 , 12.7448107448 , 8.54652014652 , -112.454212454 , -5.96618652344 , 4.49371337891 , 0.190734863281 
2018/05/16 11:26:05.654033 , -0.08984375 , -0.109375 , 4.1513671875 , 12.7448107448 , 8.54652014652 , -112.454212454 , -4.08172607422 , 3.80706787109 , -0.419616699219 
2018/05/16 11:26:05.946932 , 0.111328125 , 0.11328125 , 4.2119140625 , 12.294993895 , 6.59731379731 , -111.554578755 , -4.08172607422 , 3.80706787109 , -0.419616699219 
2018/05/16 11:26:06.239974 , 0.111328125 , 0.11328125 , 4.2119140625 , 12.294993895 , 6.59731379731 , -111.554578755 , -4.08172607422 , 3.80706787109 , -0.419616699219 
2018/05/16 11:26:06.532689 , 0.111328125 , 0.11328125 , 4.2119140625 , 12.294993895 , 6.59731379731 , -111.554578755 , -4.08172607422 , 3.80706787109 , -0.419616699219 
2018/05/16 11:26:06.825508 , 0.111328125 , 0.11328125 , 4.2119140625 , 12.294993895 , 6.59731379731 , -111.554578755 , -4.89807128906 , 5.25665283203 , 0.762939453125 
2018/05/16 11:26:07.118585 , -0.0654296875 , -0.052734375 , 4.015625 , 12.294993895 , 6.59731379731 , -111.554578755 , -4.89807128906 , 5.25665283203 , 0.762939453125 
2018/05/16 11:26:07.411252 , -0.0654296875 , -0.052734375 , 4.015625 , 12.294993895 , 6.59731379731 , -111.554578755 , -4.89807128906 , 5.25665283203 , 0.762939453125 
2018/05/16 11:26:07.704135 , -0.0654296875 , -0.052734375 , 4.015625 , 12.294993895 , 6.59731379731 , -111.554578755 , -4.2724609375 , 5.76782226562 , -1.43432617188 
2018/05/16 11:26:07.996965 , 0.052734375 , 0.3271484375 , 4.1064453125 , 11.9951159951 , 6.74725274725 , -112.004395604 , -4.2724609375 , 5.76782226562 , -1.43432617188 
2018/05/16 11:26:08.289979 , 0.052734375 , 0.3271484375 , 4.1064453125 , 11.9951159951 , 6.74725274725 , -112.004395604 , -4.2724609375 , 5.76782226562 , -1.43432617188 
2018/05/16 11:26:08.582678 , 0.052734375 , 0.3271484375 , 4.1064453125 , 11.9951159951 , 6.74725274725 , -112.004395604 , -4.2724609375 , 5.76782226562 , -1.43432617188 
2018/05/16 11:26:08.875613 , -0.06640625 , 0.2783203125 , 4.087890625 , 11.9951159951 , 6.74725274725 , -112.004395604 , -4.66918945312 , 3.30352783203 , 0.0228881835938 
2018/05/16 11:26:09.168590 , -0.06640625 , 0.2783203125 , 4.087890625 , 11.9951159951 , 6.74725274725 , -112.004395604 , -4.66918945312 , 3.30352783203 , 0.0228881835938 
2018/05/16 11:26:09.461329 , -0.06640625 , 0.2783203125 , 4.087890625 , 11.9951159951 , 6.74725274725 , -112.004395604 , -4.66918945312 , 3.30352783203 , 0.0228881835938 
2018/05/16 11:26:09.754040 , -0.06640625 , 0.2783203125 , 4.087890625 , 12.5948717949 , 7.34700854701 , -113.953601954 , -4.21905517578 , 4.59289550781 , -0.06103515625 
2018/05/16 11:26:10.046791 , -0.0810546875 , 0.1435546875 , 3.9345703125 , 12.5948717949 , 7.34700854701 , -113.953601954 , -4.21905517578 , 4.59289550781 , -0.06103515625 
2018/05/16 11:26:10.339693 , -0.0810546875 , 0.1435546875 , 3.9345703125 , 12.5948717949 , 7.34700854701 , -113.953601954 , -4.21905517578 , 4.59289550781 , -0.06103515625 
2018/05/16 11:26:10.632480 , -0.0810546875 , 0.1435546875 , 3.9345703125 , 12.5948717949 , 7.34700854701 , -113.953601954 , -4.21905517578 , 4.59289550781 , -0.06103515625 
2018/05/16 11:26:10.925346 , 0.15234375 , 0.0771484375 , 4.05078125 , 12.5948717949 , 7.34700854701 , -113.953601954 , -3.91387939453 , 6.03485107422 , 0.18310546875 
2018/05/16 11:26:11.218306 , 0.15234375 , 0.0771484375 , 4.05078125 , 12.5948717949 , 7.34700854701 , -113.953601954 , -3.91387939453 , 6.03485107422 , 0.18310546875 
2018/05/16 11:26:11.510965 , 0.15234375 , 0.0771484375 , 4.05078125 , 12.5948717949 , 7.34700854701 , -113.953601954 , -3.91387939453 , 6.03485107422 , 0.18310546875 
2018/05/16 11:26:11.852592 , 0.15234375 , 0.0771484375 , 4.05078125 , 12.5948717949 , 7.34700854701 , -113.953601954 , -2.89154052734 , 4.33349609375 , 1.44195556641 
2018/05/16 11:26:12.145633 , -0.076171875 , 0.228515625 , 3.994140625 , 12.5948717949 , 7.34700854701 , -113.953601954 , -2.89154052734 , 4.33349609375 , 1.44195556641 
2018/05/16 11:26:12.438349 , -0.076171875 , 0.228515625 , 3.994140625 , 12.5948717949 , 7.34700854701 , -113.953601954 , -2.89154052734 , 4.33349609375 , 1.44195556641 
2018/05/16 11:26:12.731020 , -0.076171875 , 0.228515625 , 3.994140625 , 12.5948717949 , 7.34700854701 , -113.953601954 , -5.43212890625 , 4.64630126953 , -0.0457763671875 
2018/05/16 11:26:13.023816 , 0.1337890625 , -0.0087890625 , 4.0869140625 , 12.294993895 , 6.59731379731 , -113.203907204 , -5.43212890625 , 4.64630126953 , -0.0457763671875 
2018/05/16 11:26:13.316646 , 0.1337890625 , -0.0087890625 , 4.0869140625 , 12.294993895 , 6.59731379731 , -113.203907204 , -5.43212890625 , 4.64630126953 , -0.0457763671875 
2018/05/16 11:26:13.609440 , 0.1337890625 , -0.0087890625 , 4.0869140625 , 12.294993895 , 6.59731379731 , -113.203907204 , -5.43212890625 , 4.64630126953 , -0.0457763671875 
2018/05/16 11:26:13.902242 , -0.103515625 , -0.0283203125 , 4.0947265625 , 12.7448107448 , 6.44737484737 , -110.654945055 , -6.17980957031 , 4.31823730469 , -0.839233398438 
2018/05/16 11:26:14.195103 , -0.103515625 , -0.0283203125 , 4.0947265625 , 12.7448107448 , 6.44737484737 , -110.654945055 , -6.17980957031 , 4.31823730469 , -0.839233398438 
2018/05/16 11:26:14.487974 , -0.103515625 , -0.0283203125 , 4.0947265625 , 12.7448107448 , 6.44737484737 , -110.654945055 , -6.17980957031 , 4.31823730469 , -0.839233398438 
2018/05/16 11:26:14.780651 , -0.103515625 , -0.0283203125 , 4.0947265625 , 12.7448107448 , 6.44737484737 , -110.654945055 , -1.66320800781 , 3.96728515625 , 1.57928466797 
2018/05/16 11:26:15.073423 , 0.1767578125 , -0.2529296875 , 4.0634765625 , 12.7448107448 , 6.44737484737 , -110.654945055 , -1.66320800781 , 3.96728515625 , 1.57928466797 
2018/05/16 11:26:15.366246 , 0.1767578125 , -0.2529296875 , 4.0634765625 , 12.7448107448 , 6.44737484737 , -110.654945055 , -1.66320800781 , 3.96728515625 , 1.57928466797 
2018/05/16 11:26:15.659009 , 0.1767578125 , -0.2529296875 , 4.0634765625 , 12.7448107448 , 6.44737484737 , -110.654945055 , -1.66320800781 , 3.96728515625 , 1.57928466797 
2018/05/16 11:26:15.951778 , -0.0546875 , -0.033203125 , 4.353515625 , 12.7448107448 , 6.44737484737 , -110.654945055 , -4.15802001953 , 3.12042236328 , -0.00762939453125 
2018/05/16 11:26:16.244582 , -0.0546875 , -0.033203125 , 4.353515625 , 12.7448107448 , 6.44737484737 , -110.654945055 , -4.15802001953 , 3.12042236328 , -0.00762939453125 
2018/05/16 11:26:16.537325 , -0.0546875 , -0.033203125 , 4.353515625 , 12.7448107448 , 6.44737484737 , -110.654945055 , -4.15802001953 , 3.12042236328 , -0.00762939453125 
2018/05/16 11:26:16.830140 , -0.0546875 , -0.033203125 , 4.353515625 , 11.8451770452 , 6.59731379731 , -110.205128205 , -6.98852539062 , 5.81359863281 , -0.18310546875 
2018/05/16 11:26:17.122924 , -0.02734375 , 0.1943359375 , 4.1435546875 , 11.8451770452 , 6.59731379731 , -110.205128205 , -6.98852539062 , 5.81359863281 , -0.18310546875 
2018/05/16 11:26:17.415707 , -0.02734375 , 0.1943359375 , 4.1435546875 , 11.8451770452 , 6.59731379731 , -110.205128205 , -6.98852539062 , 5.81359863281 , -0.18310546875 
2018/05/16 11:26:17.708515 , -0.02734375 , 0.1943359375 , 4.1435546875 , 11.8451770452 , 6.59731379731 , -110.205128205 , -5.28717041016 , 4.98199462891 , 1.5869140625 
2018/05/16 11:26:18.001245 , -0.18359375 , 0.224609375 , 4.46875 , 11.5452991453 , 7.34700854701 , -111.554578755 , -5.28717041016 , 4.98199462891 , 1.5869140625 
2018/05/16 11:26:18.294058 , -0.18359375 , 0.224609375 , 4.46875 , 11.5452991453 , 7.34700854701 , -111.554578755 , -5.28717041016 , 4.98199462891 , 1.5869140625 
2018/05/16 11:26:18.586776 , -0.18359375 , 0.224609375 , 4.46875 , 11.5452991453 , 7.34700854701 , -111.554578755 , -5.28717041016 , 4.98199462891 , 1.5869140625 
2018/05/16 11:26:18.879583 , 0.029296875 , 0.1240234375 , 3.90625 , 11.6952380952 , 7.19706959707 , -110.355067155 , -3.80706787109 , 4.81414794922 , -0.808715820312 
2018/05/16 11:26:19.172461 , 0.029296875 , 0.1240234375 , 3.90625 , 11.6952380952 , 7.19706959707 , -110.355067155 , -3.80706787109 , 4.81414794922 , -0.808715820312 
2018/05/16 11:26:19.465062 , 0.029296875 , 0.1240234375 , 3.90625 , 11.6952380952 , 7.19706959707 , -110.355067155 , -3.80706787109 , 4.81414794922 , -0.808715820312 
2018/05/16 11:26:19.757809 , 0.029296875 , 0.1240234375 , 3.90625 , 11.6952380952 , 7.19706959707 , -110.355067155 , -4.39453125 , 5.31005859375 , 0.778198242188 
2018/05/16 11:26:20.050604 , 0.0595703125 , 0.1923828125 , 4.0380859375 , 11.5452991453 , 7.04713064713 , -110.205128205 , -4.39453125 , 5.31005859375 , 0.778198242188 
2018/05/16 11:26:20.343369 , 0.0595703125 , 0.1923828125 , 4.0380859375 , 11.5452991453 , 7.04713064713 , -110.205128205 , -4.39453125 , 5.31005859375 , 0.778198242188 
2018/05/16 11:26:20.636088 , 0.0595703125 , 0.1923828125 , 4.0380859375 , 11.5452991453 , 7.04713064713 , -110.205128205 , -4.39453125 , 5.31005859375 , 0.778198242188 
2018/05/16 11:26:20.928951 , -0.0693359375 , 0.3095703125 , 4.1015625 , 11.8451770452 , 6.59731379731 , -110.804884005 , -3.11279296875 , 5.21087646484 , -0.953674316406 
2018/05/16 11:26:21.221711 , -0.0693359375 , 0.3095703125 , 4.1015625 , 11.8451770452 , 6.59731379731 , -110.804884005 , -3.11279296875 , 5.21087646484 , -0.953674316406 
2018/05/16 11:26:21.514385 , -0.0693359375 , 0.3095703125 , 4.1015625 , 11.8451770452 , 6.59731379731 , -110.804884005 , -3.11279296875 , 5.21087646484 , -0.953674316406 
2018/05/16 11:26:21.807055 , -0.0693359375 , 0.3095703125 , 4.1015625 , 12.8947496947 , 7.64688644689 , -111.554578755 , -4.05883789062 , 3.67736816406 , -1.28173828125 
2018/05/16 11:26:22.099959 , 0.1494140625 , -0.1591796875 , 4.318359375 , 12.8947496947 , 7.64688644689 , -111.554578755 , -4.05883789062 , 3.67736816406 , -1.28173828125 
2018/05/16 11:26:22.392541 , 0.1494140625 , -0.1591796875 , 4.318359375 , 12.8947496947 , 7.64688644689 , -111.554578755 , -4.05883789062 , 3.67736816406 , -1.28173828125 
2018/05/16 11:26:22.685380 , 0.1494140625 , -0.1591796875 , 4.318359375 , 12.8947496947 , 7.64688644689 , -111.554578755 , -5.10406494141 , 4.16564941406 , 1.16729736328 
2018/05/16 11:26:22.978060 , 0.236328125 , 0.0556640625 , 4.1357421875 , 12.5948717949 , 6.59731379731 , -111.254700855 , -5.10406494141 , 4.16564941406 , 1.16729736328 
2018/05/16 11:26:23.270765 , 0.236328125 , 0.0556640625 , 4.1357421875 , 12.5948717949 , 6.59731379731 , -111.254700855 , -5.10406494141 , 4.16564941406 , 1.16729736328 
2018/05/16 11:26:23.563502 , 0.236328125 , 0.0556640625 , 4.1357421875 , 12.5948717949 , 6.59731379731 , -111.254700855 , -5.10406494141 , 4.16564941406 , 1.16729736328 
2018/05/16 11:26:23.856210 , 0.236328125 , 0.0556640625 , 4.1357421875 , 11.5452991453 , 8.0967032967 , -109.455433455 , -4.40216064453 , 4.10461425781 , -1.22833251953 
2018/05/16 11:26:24.149149 , -0.0390625 , -0.1240234375 , 4.0654296875 , 11.5452991453 , 8.0967032967 , -109.455433455 , -4.40216064453 , 4.10461425781 , -1.22833251953 
2018/05/16 11:26:24.441795 , -0.0390625 , -0.1240234375 , 4.0654296875 , 11.5452991453 , 8.0967032967 , -109.455433455 , -4.40216064453 , 4.10461425781 , -1.22833251953 
2018/05/16 11:26:24.734418 , -0.0390625 , -0.1240234375 , 4.0654296875 , 11.5452991453 , 8.0967032967 , -109.455433455 , -4.08935546875 , 3.93676757812 , -1.40380859375 
2018/05/16 11:26:25.027175 , -0.0380859375 , 0.15234375 , 4.1005859375 , 11.5452991453 , 8.39658119658 , -111.554578755 , -4.08935546875 , 3.93676757812 , -1.40380859375 
2018/05/16 11:26:25.319934 , -0.0380859375 , 0.15234375 , 4.1005859375 , 11.5452991453 , 8.39658119658 , -111.554578755 , -4.08935546875 , 3.93676757812 , -1.40380859375 
2018/05/16 11:26:25.612627 , -0.0380859375 , 0.15234375 , 4.1005859375 , 11.5452991453 , 8.39658119658 , -111.554578755 , -4.08935546875 , 3.93676757812 , -1.40380859375 
2018/05/16 11:26:25.905370 , 0.1220703125 , -0.087890625 , 4.0009765625 , 10.7956043956 , 7.34700854701 , -111.854456654 , -3.73840332031 , 4.11224365234 , -1.45721435547 
2018/05/16 11:26:26.198242 , 0.1220703125 , -0.087890625 , 4.0009765625 , 10.7956043956 , 7.34700854701 , -111.854456654 , -3.73840332031 , 4.11224365234 , -1.45721435547 
2018/05/16 11:26:26.490905 , 0.1220703125 , -0.087890625 , 4.0009765625 , 10.7956043956 , 7.34700854701 , -111.854456654 , -3.73840332031 , 4.11224365234 , -1.45721435547 
2018/05/16 11:26:26.783470 , 0.1220703125 , -0.087890625 , 4.0009765625 , 11.9951159951 , 6.74725274725 , -111.704517705 , -5.48553466797 , 5.34057617188 , 0.129699707031 
2018/05/16 11:26:27.076259 , 0.001953125 , -0.0966796875 , 4.0029296875 , 11.9951159951 , 6.74725274725 , -111.704517705 , -5.48553466797 , 5.34057617188 , 0.129699707031 
2018/05/16 11:26:27.368988 , 0.001953125 , -0.0966796875 , 4.0029296875 , 11.9951159951 , 6.74725274725 , -111.704517705 , -5.48553466797 , 5.34057617188 , 0.129699707031 
2018/05/16 11:26:27.661626 , 0.001953125 , -0.0966796875 , 4.0029296875 , 11.9951159951 , 6.74725274725 , -111.704517705 , -5.48553466797 , 5.34057617188 , 0.129699707031 
2018/05/16 11:26:27.954359 , 0.0380859375 , -0.125 , 4.36328125 , 11.6952380952 , 6.74725274725 , -111.704517705 , -3.96728515625 , 4.71496582031 , -1.90734863281 
2018/05/16 11:26:28.247175 , 0.0380859375 , -0.125 , 4.36328125 , 11.6952380952 , 6.74725274725 , -111.704517705 , -3.96728515625 , 4.71496582031 , -1.90734863281 
2018/05/16 11:26:28.539764 , 0.0380859375 , -0.125 , 4.36328125 , 11.6952380952 , 6.74725274725 , -111.704517705 , -3.96728515625 , 4.71496582031 , -1.90734863281 
2018/05/16 11:26:28.832606 , 0.0380859375 , -0.125 , 4.36328125 , 12.4449328449 , 6.74725274725 , -111.104761905 , -4.7607421875 , 4.25720214844 , -0.602722167969 
2018/05/16 11:26:29.125346 , 0.0166015625 , 0.2421875 , 3.982421875 , 12.4449328449 , 6.74725274725 , -111.104761905 , -4.7607421875 , 4.25720214844 , -0.602722167969 
2018/05/16 11:26:29.417939 , 0.0166015625 , 0.2421875 , 3.982421875 , 12.4449328449 , 6.74725274725 , -111.104761905 , -4.7607421875 , 4.25720214844 , -0.602722167969 
2018/05/16 11:26:29.710617 , 0.0166015625 , 0.2421875 , 3.982421875 , 12.4449328449 , 6.74725274725 , -111.104761905 , -3.69262695312 , 4.67681884766 , -1.12915039062 
2018/05/16 11:26:30.003325 , -0.0908203125 , 0.158203125 , 4.0830078125 , 12.5948717949 , 5.54774114774 , -111.554578755 , -3.69262695312 , 4.67681884766 , -1.12915039062 
2018/05/16 11:26:30.296079 , -0.0908203125 , 0.158203125 , 4.0830078125 , 12.5948717949 , 5.54774114774 , -111.554578755 , -3.69262695312 , 4.67681884766 , -1.12915039062 
2018/05/16 11:26:30.588777 , -0.0908203125 , 0.158203125 , 4.0830078125 , 12.5948717949 , 5.54774114774 , -111.554578755 , -3.69262695312 , 4.67681884766 , -1.12915039062 
2018/05/16 11:26:30.881373 , 0.005859375 , 0.322265625 , 3.9072265625 , 13.3445665446 , 8.69645909646 , -110.505006105 , -3.40270996094 , 3.35693359375 , -1.73950195312 
2018/05/16 11:26:31.174137 , 0.005859375 , 0.322265625 , 3.9072265625 , 13.3445665446 , 8.69645909646 , -110.505006105 , -3.40270996094 , 3.35693359375 , -1.73950195312 
2018/05/16 11:26:31.466803 , 0.005859375 , 0.322265625 , 3.9072265625 , 13.3445665446 , 8.69645909646 , -110.505006105 , -3.40270996094 , 3.35693359375 , -1.73950195312 
2018/05/16 11:26:31.759515 , 0.005859375 , 0.322265625 , 3.9072265625 , 13.3445665446 , 8.69645909646 , -110.505006105 , -3.79180908203 , 5.43212890625 , -0.640869140625 
2018/05/16 11:26:32.052148 , 0.18359375 , 0.037109375 , 4.1865234375 , 13.3445665446 , 6.59731379731 , -112.154334554 , -3.79180908203 , 5.43212890625 , -0.640869140625 
2018/05/16 11:26:32.344996 , 0.18359375 , 0.037109375 , 4.1865234375 , 13.3445665446 , 6.59731379731 , -112.154334554 , -3.79180908203 , 5.43212890625 , -0.640869140625 
2018/05/16 11:26:32.637571 , 0.18359375 , 0.037109375 , 4.1865234375 , 13.3445665446 , 6.59731379731 , -112.154334554 , -3.79180908203 , 5.43212890625 , -0.640869140625 
2018/05/16 11:26:32.930263 , 0.1044921875 , 0.0859375 , 4.0224609375 , 11.9951159951 , 6.74725274725 , -111.404639805 , -5.16510009766 , 4.33349609375 , -0.541687011719 
2018/05/16 11:26:33.223042 , 0.1044921875 , 0.0859375 , 4.0224609375 , 11.9951159951 , 6.74725274725 , -111.404639805 , -5.16510009766 , 4.33349609375 , -0.541687011719 
2018/05/16 11:26:33.515613 , 0.1044921875 , 0.0859375 , 4.0224609375 , 11.9951159951 , 6.74725274725 , -111.404639805 , -5.16510009766 , 4.33349609375 , -0.541687011719 
2018/05/16 11:26:33.808253 , 0.1044921875 , 0.0859375 , 4.0224609375 , 11.9951159951 , 8.24664224664 , -112.454212454 , -6.01959228516 , 5.19561767578 , -0.381469726562 
2018/05/16 11:26:34.100939 , -0.0546875 , 0.1650390625 , 4.060546875 , 11.9951159951 , 8.24664224664 , -112.454212454 , -6.01959228516 , 5.19561767578 , -0.381469726562 
2018/05/16 11:26:34.393655 , -0.0546875 , 0.1650390625 , 4.060546875 , 11.9951159951 , 8.24664224664 , -112.454212454 , -6.01959228516 , 5.19561767578 , -0.381469726562 
2018/05/16 11:26:34.686346 , -0.0546875 , 0.1650390625 , 4.060546875 , 11.9951159951 , 8.24664224664 , -112.454212454 , -4.16564941406 , 4.96673583984 , 0.617980957031 
2018/05/16 11:26:34.979010 , -0.0146484375 , 0.376953125 , 4.0927734375 , 12.5948717949 , 5.84761904762 , -110.505006105 , -4.16564941406 , 4.96673583984 , 0.617980957031 
2018/05/16 11:26:35.320535 , -0.0146484375 , 0.376953125 , 4.0927734375 , 12.5948717949 , 5.84761904762 , -110.505006105 , -4.16564941406 , 4.96673583984 , 0.617980957031 
2018/05/16 11:26:35.613126 , -0.0146484375 , 0.376953125 , 4.0927734375 , 12.5948717949 , 5.84761904762 , -110.505006105 , -4.16564941406 , 4.96673583984 , 0.617980957031 
2018/05/16 11:26:35.905801 , 0.0859375 , 0.2490234375 , 4.2275390625 , 11.6952380952 , 8.24664224664 , -111.704517705 , -5.41687011719 , 4.62341308594 , 0.282287597656 
2018/05/16 11:26:36.198714 , 0.0859375 , 0.2490234375 , 4.2275390625 , 11.6952380952 , 8.24664224664 , -111.704517705 , -5.41687011719 , 4.62341308594 , 0.282287597656 
2018/05/16 11:26:36.491276 , 0.0859375 , 0.2490234375 , 4.2275390625 , 11.6952380952 , 8.24664224664 , -111.704517705 , -5.41687011719 , 4.62341308594 , 0.282287597656 
2018/05/16 11:26:36.783846 , 0.0859375 , 0.2490234375 , 4.2275390625 , 11.5452991453 , 8.0967032967 , -111.854456654 , -3.70025634766 , 3.90625 , 0.747680664062 
2018/05/16 11:26:37.125430 , 0.0498046875 , 0.154296875 , 4.224609375 , 11.5452991453 , 8.0967032967 , -111.854456654 , -3.70025634766 , 3.90625 , 0.747680664062 
2018/05/16 11:26:37.417971 , 0.0498046875 , 0.154296875 , 4.224609375 , 11.5452991453 , 8.0967032967 , -111.854456654 , -3.70025634766 , 3.90625 , 0.747680664062 
2018/05/16 11:26:37.710842 , 0.0498046875 , 0.154296875 , 4.224609375 , 11.5452991453 , 8.0967032967 , -111.854456654 , -4.67681884766 , 5.40924072266 , -0.320434570312 
2018/05/16 11:26:38.003282 , 0.0712890625 , -0.0927734375 , 4.41796875 , 13.6444444444 , 6.29743589744 , -111.554578755 , -4.67681884766 , 5.40924072266 , -0.320434570312 
2018/05/16 11:26:38.295981 , 0.0712890625 , -0.0927734375 , 4.41796875 , 13.6444444444 , 6.29743589744 , -111.554578755 , -4.67681884766 , 5.40924072266 , -0.320434570312 
2018/05/16 11:26:38.588724 , 0.0712890625 , -0.0927734375 , 4.41796875 , 13.6444444444 , 6.29743589744 , -111.554578755 , -4.67681884766 , 5.40924072266 , -0.320434570312 
2018/05/16 11:26:38.881441 , 0.1708984375 , -0.21484375 , 4.095703125 , 11.9951159951 , 7.19706959707 , -110.355067155 , -4.24957275391 , 4.92858886719 , -0.534057617188 
2018/05/16 11:26:39.174099 , 0.1708984375 , -0.21484375 , 4.095703125 , 11.9951159951 , 7.19706959707 , -110.355067155 , -4.24957275391 , 4.92858886719 , -0.534057617188 
2018/05/16 11:26:39.466741 , 0.1708984375 , -0.21484375 , 4.095703125 , 11.9951159951 , 7.19706959707 , -110.355067155 , -4.24957275391 , 4.92858886719 , -0.534057617188 
2018/05/16 11:26:39.759304 , 0.1708984375 , -0.21484375 , 4.095703125 , 11.9951159951 , 7.19706959707 , -110.355067155 , -3.67736816406 , 6.43157958984 , -0.434875488281 
2018/05/16 11:26:40.051920 , -0.0419921875 , 0.173828125 , 4.1181640625 , 11.2454212454 , 6.29743589744 , -111.854456654 , -3.67736816406 , 6.43157958984 , -0.434875488281 
2018/05/16 11:26:40.344765 , -0.0419921875 , 0.173828125 , 4.1181640625 , 11.2454212454 , 6.29743589744 , -111.854456654 , -3.67736816406 , 6.43157958984 , -0.434875488281 
2018/05/16 11:26:40.637320 , -0.0419921875 , 0.173828125 , 4.1181640625 , 11.2454212454 , 6.29743589744 , -111.854456654 , -3.67736816406 , 6.43157958984 , -0.434875488281 
2018/05/16 11:26:40.929918 , 0.1162109375 , 0.3349609375 , 4.46875 , 13.0446886447 , 7.79682539683 , -113.053968254 , -4.82940673828 , 4.36401367188 , -1.953125 
2018/05/16 11:26:41.222624 , 0.1162109375 , 0.3349609375 , 4.46875 , 13.0446886447 , 7.79682539683 , -113.053968254 , -4.82940673828 , 4.36401367188 , -1.953125 
2018/05/16 11:26:41.515233 , 0.1162109375 , 0.3349609375 , 4.46875 , 13.0446886447 , 7.79682539683 , -113.053968254 , -4.82940673828 , 4.36401367188 , -1.953125 
2018/05/16 11:26:41.807909 , 0.1162109375 , 0.3349609375 , 4.46875 , 11.5452991453 , 6.59731379731 , -111.554578755 , -4.40979003906 , 3.44085693359 , -1.69372558594 
2018/05/16 11:26:42.100787 , -0.142578125 , -0.0478515625 , 4.2412109375 , 11.5452991453 , 6.59731379731 , -111.554578755 , -4.40979003906 , 3.44085693359 , -1.69372558594 
2018/05/16 11:26:42.393217 , -0.142578125 , -0.0478515625 , 4.2412109375 , 11.5452991453 , 6.59731379731 , -111.554578755 , -4.40979003906 , 3.44085693359 , -1.69372558594 
2018/05/16 11:26:42.685874 , -0.142578125 , -0.0478515625 , 4.2412109375 , 11.5452991453 , 6.59731379731 , -111.554578755 , -6.23321533203 , 4.50897216797 , -1.82342529297 
2018/05/16 11:26:42.978514 , 0.234375 , -0.0771484375 , 4.015625 , 13.0446886447 , 7.49694749695 , -112.004395604 , -6.23321533203 , 4.50897216797 , -1.82342529297 
2018/05/16 11:26:43.271257 , 0.234375 , -0.0771484375 , 4.015625 , 13.0446886447 , 7.49694749695 , -112.004395604 , -6.23321533203 , 4.50897216797 , -1.82342529297 
2018/05/16 11:26:43.563802 , 0.234375 , -0.0771484375 , 4.015625 , 13.0446886447 , 7.49694749695 , -112.004395604 , -6.23321533203 , 4.50897216797 , -1.82342529297 
2018/05/16 11:26:43.856489 , 0.234375 , -0.0771484375 , 4.015625 , 12.5948717949 , 6.59731379731 , -110.505006105 , -5.46264648438 , 3.88336181641 , -1.40380859375 
2018/05/16 11:26:44.149256 , -0.0322265625 , -0.0263671875 , 4.130859375 , 12.5948717949 , 6.59731379731 , -110.505006105 , -5.46264648438 , 3.88336181641 , -1.40380859375 
2018/05/16 11:26:44.441870 , -0.0322265625 , -0.0263671875 , 4.130859375 , 12.5948717949 , 6.59731379731 , -110.505006105 , -5.46264648438 , 3.88336181641 , -1.40380859375 
2018/05/16 11:26:44.734376 , -0.0322265625 , -0.0263671875 , 4.130859375 , 12.5948717949 , 6.59731379731 , -110.505006105 , -3.15093994141 , 5.50079345703 , 1.01470947266 
2018/05/16 11:26:45.027039 , 0.0166015625 , 0.0166015625 , 4.3740234375 , 12.7448107448 , 5.69768009768 , -112.454212454 , -3.15093994141 , 5.50079345703 , 1.01470947266 
2018/05/16 11:26:45.319691 , 0.0166015625 , 0.0166015625 , 4.3740234375 , 12.7448107448 , 5.69768009768 , -112.454212454 , -3.15093994141 , 5.50079345703 , 1.01470947266 
2018/05/16 11:26:45.612342 , 0.0166015625 , 0.0166015625 , 4.3740234375 , 12.7448107448 , 5.69768009768 , -112.454212454 , -3.15093994141 , 5.50079345703 , 1.01470947266 
2018/05/16 11:26:45.904944 , -0.0546875 , 0.078125 , 4.1484375 , 12.7448107448 , 5.69768009768 , -112.454212454 , -3.56292724609 , 3.62396240234 , -0.587463378906 
2018/05/16 11:26:46.197746 , -0.0546875 , 0.078125 , 4.1484375 , 12.7448107448 , 5.69768009768 , -112.454212454 , -3.56292724609 , 3.62396240234 , -0.587463378906 
2018/05/16 11:26:46.490236 , -0.0546875 , 0.078125 , 4.1484375 , 12.7448107448 , 5.69768009768 , -112.454212454 , -3.56292724609 , 3.62396240234 , -0.587463378906 
2018/05/16 11:26:46.782911 , -0.0546875 , 0.078125 , 4.1484375 , 11.3953601954 , 6.44737484737 , -110.654945055 , -4.63104248047 , 3.21197509766 , 1.02233886719 
2018/05/16 11:26:47.075566 , 0.03125 , 0.134765625 , 4.2587890625 , 11.3953601954 , 6.44737484737 , -110.654945055 , -4.63104248047 , 3.21197509766 , 1.02233886719 
2018/05/16 11:26:47.368307 , 0.03125 , 0.134765625 , 4.2587890625 , 11.3953601954 , 6.44737484737 , -110.654945055 , -4.63104248047 , 3.21197509766 , 1.02233886719 
2018/05/16 11:26:47.660820 , 0.03125 , 0.134765625 , 4.2587890625 , 11.3953601954 , 6.44737484737 , -110.654945055 , -4.63104248047 , 3.21197509766 , 1.02233886719 
2018/05/16 11:26:47.953566 , 0.1044921875 , 0.185546875 , 3.8984375 , 11.3953601954 , 6.44737484737 , -110.654945055 , -4.64630126953 , 4.32586669922 , -1.36566162109 
2018/05/16 11:26:48.246293 , 0.1044921875 , 0.185546875 , 3.8984375 , 11.3953601954 , 6.44737484737 , -110.654945055 , -4.64630126953 , 4.32586669922 , -1.36566162109 
2018/05/16 11:26:48.538787 , 0.1044921875 , 0.185546875 , 3.8984375 , 11.3953601954 , 6.44737484737 , -110.654945055 , -4.64630126953 , 4.32586669922 , -1.36566162109 
2018/05/16 11:26:48.831476 , 0.1044921875 , 0.185546875 , 3.8984375 , 12.7448107448 , 7.19706959707 , -112.754090354 , -4.34875488281 , 4.50897216797 , 0.320434570312 
2018/05/16 11:26:49.123988 , -0.0703125 , -0.1083984375 , 4.3388671875 , 12.7448107448 , 7.19706959707 , -112.754090354 , -4.34875488281 , 4.50897216797 , 0.320434570312 
2018/05/16 11:26:49.416652 , -0.0703125 , -0.1083984375 , 4.3388671875 , 12.7448107448 , 7.19706959707 , -112.754090354 , -4.34875488281 , 4.50897216797 , 0.320434570312 
2018/05/16 11:26:49.709213 , -0.0703125 , -0.1083984375 , 4.3388671875 , 12.7448107448 , 7.19706959707 , -112.754090354 , -5.82122802734 , 4.24194335938 , 0.411987304688 
2018/05/16 11:26:50.001943 , 0.1025390625 , 0.1318359375 , 4.1708984375 , 12.7448107448 , 7.19706959707 , -112.754090354 , -5.82122802734 , 4.24194335938 , 0.411987304688 
2018/05/16 11:26:50.294639 , 0.1025390625 , 0.1318359375 , 4.1708984375 , 12.7448107448 , 7.19706959707 , -112.754090354 , -5.82122802734 , 4.24194335938 , 0.411987304688 
2018/05/16 11:26:50.587176 , 0.1025390625 , 0.1318359375 , 4.1708984375 , 12.7448107448 , 7.19706959707 , -112.754090354 , -5.82122802734 , 4.24194335938 , 0.411987304688 
2018/05/16 11:26:50.879894 , 0.029296875 , -0.0927734375 , 4.3388671875 , 10.9455433455 , 6.1474969475 , -111.104761905 , -5.04302978516 , 3.89862060547 , -0.732421875 
2018/05/16 11:26:51.172546 , 0.029296875 , -0.0927734375 , 4.3388671875 , 10.9455433455 , 6.1474969475 , -111.104761905 , -5.04302978516 , 3.89862060547 , -0.732421875 
2018/05/16 11:26:51.465130 , 0.029296875 , -0.0927734375 , 4.3388671875 , 10.9455433455 , 6.1474969475 , -111.104761905 , -5.04302978516 , 3.89862060547 , -0.732421875 
2018/05/16 11:26:51.757665 , 0.029296875 , -0.0927734375 , 4.3388671875 , 10.9455433455 , 6.1474969475 , -111.104761905 , -3.74603271484 , 5.41687011719 , -0.450134277344 
2018/05/16 11:26:52.050299 , -0.1103515625 , 0.125 , 4.25 , 10.9455433455 , 6.1474969475 , -111.104761905 , -3.74603271484 , 5.41687011719 , -0.450134277344 
2018/05/16 11:26:52.342896 , -0.1103515625 , 0.125 , 4.25 , 10.9455433455 , 6.1474969475 , -111.104761905 , -3.74603271484 , 5.41687011719 , -0.450134277344 
2018/05/16 11:26:52.635499 , -0.1103515625 , 0.125 , 4.25 , 10.9455433455 , 6.1474969475 , -111.104761905 , -3.74603271484 , 5.41687011719 , -0.450134277344 
2018/05/16 11:26:52.928134 , 0.13671875 , 0.31640625 , 4.2578125 , 10.9455433455 , 6.1474969475 , -111.104761905 , -3.71551513672 , 5.17272949219 , -0.0152587890625 
2018/05/16 11:26:53.221020 , 0.13671875 , 0.31640625 , 4.2578125 , 10.9455433455 , 6.1474969475 , -111.104761905 , -3.71551513672 , 5.17272949219 , -0.0152587890625 
2018/05/16 11:26:53.513390 , 0.13671875 , 0.31640625 , 4.2578125 , 10.9455433455 , 6.1474969475 , -111.104761905 , -3.71551513672 , 5.17272949219 , -0.0152587890625 
2018/05/16 11:26:53.806010 , 0.13671875 , 0.31640625 , 4.2578125 , 11.6952380952 , 7.19706959707 , -112.004395604 , -3.15856933594 , 6.43157958984 , -1.8310546875 
2018/05/16 11:26:54.098824 , 0.0546875 , 0.095703125 , 4.2529296875 , 11.6952380952 , 7.19706959707 , -112.004395604 , -3.15856933594 , 6.43157958984 , -1.8310546875 
2018/05/16 11:26:54.391251 , 0.0546875 , 0.095703125 , 4.2529296875 , 11.6952380952 , 7.19706959707 , -112.004395604 , -3.15856933594 , 6.43157958984 , -1.8310546875 
2018/05/16 11:26:54.683889 , 0.0546875 , 0.095703125 , 4.2529296875 , 11.6952380952 , 7.19706959707 , -112.004395604 , -3.09753417969 , 4.03594970703 , 0.6103515625 
2018/05/16 11:26:54.976472 , 0.0634765625 , -0.12109375 , 4.0244140625 , 11.6952380952 , 7.79682539683 , -111.104761905 , -3.09753417969 , 4.03594970703 , 0.6103515625 
2018/05/16 11:26:55.269117 , 0.0634765625 , -0.12109375 , 4.0244140625 , 11.6952380952 , 7.79682539683 , -111.104761905 , -3.09753417969 , 4.03594970703 , 0.6103515625 
2018/05/16 11:26:55.561712 , 0.0634765625 , -0.12109375 , 4.0244140625 , 11.6952380952 , 7.79682539683 , -111.104761905 , -3.09753417969 , 4.03594970703 , 0.6103515625 
2018/05/16 11:26:55.854334 , 0.0634765625 , -0.12109375 , 4.0244140625 , 11.6952380952 , 7.79682539683 , -111.104761905 , -4.22668457031 , 5.14984130859 , -0.030517578125 
2018/05/16 11:26:56.147157 , 0.056640625 , 0.064453125 , 4.4208984375 , 11.6952380952 , 7.79682539683 , -111.104761905 , -4.22668457031 , 5.14984130859 , -0.030517578125 
2018/05/16 11:26:56.439699 , 0.056640625 , 0.064453125 , 4.4208984375 , 11.6952380952 , 7.79682539683 , -111.104761905 , -4.22668457031 , 5.14984130859 , -0.030517578125 
2018/05/16 11:26:56.732215 , 0.056640625 , 0.064453125 , 4.4208984375 , 11.6952380952 , 7.79682539683 , -111.104761905 , -4.03594970703 , 5.22613525391 , 0.091552734375 
2018/05/16 11:26:57.024826 , -0.021484375 , 0.1220703125 , 4.0 , 11.6952380952 , 7.79682539683 , -111.104761905 , -4.03594970703 , 5.22613525391 , 0.091552734375 
2018/05/16 11:26:57.317476 , -0.021484375 , 0.1220703125 , 4.0 , 11.6952380952 , 7.79682539683 , -111.104761905 , -4.03594970703 , 5.22613525391 , 0.091552734375 
2018/05/16 11:26:57.610066 , -0.021484375 , 0.1220703125 , 4.0 , 11.6952380952 , 7.79682539683 , -111.104761905 , -4.03594970703 , 5.22613525391 , 0.091552734375 
2018/05/16 11:26:57.902663 , -0.0830078125 , -0.0869140625 , 3.9921875 , 11.6952380952 , 6.74725274725 , -111.704517705 , -5.14984130859 , 5.13458251953 , 0.404357910156 
2018/05/16 11:26:58.195362 , -0.0830078125 , -0.0869140625 , 3.9921875 , 11.6952380952 , 6.74725274725 , -111.704517705 , -5.14984130859 , 5.13458251953 , 0.404357910156 
2018/05/16 11:26:58.536677 , -0.0830078125 , -0.0869140625 , 3.9921875 , 11.6952380952 , 6.74725274725 , -111.704517705 , -5.14984130859 , 5.13458251953 , 0.404357910156 
2018/05/16 11:26:58.829290 , -0.0830078125 , -0.0869140625 , 3.9921875 , 12.294993895 , 7.34700854701 , -113.203907204 , -5.14984130859 , 4.05883789062 , -1.48773193359 
2018/05/16 11:26:59.121980 , 0.302734375 , 0.0986328125 , 4.19921875 , 12.294993895 , 7.34700854701 , -113.203907204 , -5.14984130859 , 4.05883789062 , -1.48773193359 
2018/05/16 11:26:59.414525 , 0.302734375 , 0.0986328125 , 4.19921875 , 12.294993895 , 7.34700854701 , -113.203907204 , -5.14984130859 , 4.05883789062 , -1.48773193359 
2018/05/16 11:26:59.707140 , 0.302734375 , 0.0986328125 , 4.19921875 , 12.294993895 , 7.34700854701 , -113.203907204 , -4.38690185547 , 4.53186035156 , -0.79345703125 
2018/05/16 11:26:59.999700 , 0.248046875 , 0.1728515625 , 4.017578125 , 12.7448107448 , 6.1474969475 , -110.355067155 , -4.38690185547 , 4.53186035156 , -0.79345703125 
2018/05/16 11:27:00.292385 , 0.248046875 , 0.1728515625 , 4.017578125 , 12.7448107448 , 6.1474969475 , -110.355067155 , -4.38690185547 , 4.53186035156 , -0.79345703125 
2018/05/16 11:27:00.584989 , 0.248046875 , 0.1728515625 , 4.017578125 , 12.7448107448 , 6.1474969475 , -110.355067155 , -4.38690185547 , 4.53186035156 , -0.79345703125 
2018/05/16 11:27:00.877556 , 0.248046875 , 0.1728515625 , 4.017578125 , 10.7956043956 , 7.64688644689 , -111.254700855 , -3.31878662109 , 5.31005859375 , 0.556945800781 
2018/05/16 11:27:01.219166 , -0.0380859375 , 0.1474609375 , 4.0087890625 , 10.7956043956 , 7.64688644689 , -111.254700855 , -3.31878662109 , 5.31005859375 , 0.556945800781 
2018/05/16 11:27:01.511508 , -0.0380859375 , 0.1474609375 , 4.0087890625 , 10.7956043956 , 7.64688644689 , -111.254700855 , -3.31878662109 , 5.31005859375 , 0.556945800781 
2018/05/16 11:27:01.804259 , -0.0380859375 , 0.1474609375 , 4.0087890625 , 12.7448107448 , 7.49694749695 , -111.704517705 , -4.12750244141 , 4.89807128906 , -0.785827636719 
2018/05/16 11:27:02.096692 , 0.0986328125 , -0.021484375 , 4.2314453125 , 12.7448107448 , 7.49694749695 , -111.704517705 , -4.12750244141 , 4.89807128906 , -0.785827636719 
2018/05/16 11:27:02.389355 , 0.0986328125 , -0.021484375 , 4.2314453125 , 12.7448107448 , 7.49694749695 , -111.704517705 , -4.12750244141 , 4.89807128906 , -0.785827636719 
2018/05/16 11:27:02.681977 , 0.0986328125 , -0.021484375 , 4.2314453125 , 12.7448107448 , 7.49694749695 , -111.704517705 , -4.12750244141 , 4.89807128906 , -0.785827636719 
2018/05/16 11:27:02.974576 , -0.0185546875 , -0.1181640625 , 3.9384765625 , 12.294993895 , 7.34700854701 , -111.554578755 , -3.85284423828 , 3.95965576172 , 0.709533691406 
2018/05/16 11:27:03.267321 , -0.0185546875 , -0.1181640625 , 3.9384765625 , 12.294993895 , 7.34700854701 , -111.554578755 , -3.85284423828 , 3.95965576172 , 0.709533691406 
2018/05/16 11:27:03.559790 , -0.0185546875 , -0.1181640625 , 3.9384765625 , 12.294993895 , 7.34700854701 , -111.554578755 , -3.85284423828 , 3.95965576172 , 0.709533691406 
2018/05/16 11:27:03.852372 , -0.0185546875 , -0.1181640625 , 3.9384765625 , 12.5948717949 , 7.34700854701 , -112.154334554 , -6.15692138672 , 5.51605224609 , -1.68609619141 
2018/05/16 11:27:04.144977 , 0.0859375 , 0.33203125 , 4.1943359375 , 12.5948717949 , 7.34700854701 , -112.154334554 , -6.15692138672 , 5.51605224609 , -1.68609619141 
2018/05/16 11:27:04.437612 , 0.0859375 , 0.33203125 , 4.1943359375 , 12.5948717949 , 7.34700854701 , -112.154334554 , -6.15692138672 , 5.51605224609 , -1.68609619141 
2018/05/16 11:27:04.730263 , 0.0859375 , 0.33203125 , 4.1943359375 , 12.5948717949 , 7.34700854701 , -112.154334554 , -3.34167480469 , 5.4931640625 , -0.556945800781 
2018/05/16 11:27:05.022761 , 0.05078125 , -0.05078125 , 4.0419921875 , 11.8451770452 , 7.34700854701 , -110.205128205 , -3.34167480469 , 5.4931640625 , -0.556945800781 
2018/05/16 11:27:05.315457 , 0.05078125 , -0.05078125 , 4.0419921875 , 11.8451770452 , 7.34700854701 , -110.205128205 , -3.34167480469 , 5.4931640625 , -0.556945800781 
2018/05/16 11:27:05.608004 , 0.05078125 , -0.05078125 , 4.0419921875 , 11.8451770452 , 7.34700854701 , -110.205128205 , -3.34167480469 , 5.4931640625 , -0.556945800781 
2018/05/16 11:27:05.900678 , 0.041015625 , 0.001953125 , 4.0986328125 , 12.294993895 , 5.84761904762 , -110.205128205 , -3.60107421875 , 5.53131103516 , -1.32751464844 
2018/05/16 11:27:06.193413 , 0.041015625 , 0.001953125 , 4.0986328125 , 12.294993895 , 5.84761904762 , -110.205128205 , -3.60107421875 , 5.53131103516 , -1.32751464844 
2018/05/16 11:27:06.485910 , 0.041015625 , 0.001953125 , 4.0986328125 , 12.294993895 , 5.84761904762 , -110.205128205 , -3.60107421875 , 5.53131103516 , -1.32751464844 
2018/05/16 11:27:06.778427 , 0.041015625 , 0.001953125 , 4.0986328125 , 12.294993895 , 5.84761904762 , -110.205128205 , -3.47900390625 , 5.37872314453 , -0.862121582031 
2018/05/16 11:27:07.070980 , 0.048828125 , -0.0732421875 , 4.04296875 , 13.3445665446 , 8.0967032967 , -109.455433455 , -3.47900390625 , 5.37872314453 , -0.862121582031 
2018/05/16 11:27:07.363592 , 0.048828125 , -0.0732421875 , 4.04296875 , 13.3445665446 , 8.0967032967 , -109.455433455 , -3.47900390625 , 5.37872314453 , -0.862121582031 
2018/05/16 11:27:07.656194 , 0.048828125 , -0.0732421875 , 4.04296875 , 13.3445665446 , 8.0967032967 , -109.455433455 , -3.47900390625 , 5.37872314453 , -0.862121582031 
2018/05/16 11:27:07.948810 , 0.01953125 , 0.0283203125 , 3.95703125 , 12.294993895 , 7.34700854701 , -111.254700855 , -3.11279296875 , 3.36456298828 , -0.625610351562 
2018/05/16 11:27:08.241510 , 0.01953125 , 0.0283203125 , 3.95703125 , 12.294993895 , 7.34700854701 , -111.254700855 , -3.11279296875 , 3.36456298828 , -0.625610351562 
2018/05/16 11:27:08.534093 , 0.01953125 , 0.0283203125 , 3.95703125 , 12.294993895 , 7.34700854701 , -111.254700855 , -3.11279296875 , 3.36456298828 , -0.625610351562 
2018/05/16 11:27:08.826574 , 0.01953125 , 0.0283203125 , 3.95703125 , 11.5452991453 , 7.04713064713 , -112.154334554 , -3.44848632812 , 4.03594970703 , 0.0228881835938 
2018/05/16 11:27:09.119247 , -0.00390625 , -0.0341796875 , 3.947265625 , 11.5452991453 , 7.04713064713 , -112.154334554 , -3.44848632812 , 4.03594970703 , 0.0228881835938 
2018/05/16 11:27:09.411769 , -0.00390625 , -0.0341796875 , 3.947265625 , 11.5452991453 , 7.04713064713 , -112.154334554 , -3.44848632812 , 4.03594970703 , 0.0228881835938 
2018/05/16 11:27:09.704369 , -0.00390625 , -0.0341796875 , 3.947265625 , 11.5452991453 , 7.04713064713 , -112.154334554 , -4.150390625 , 4.11987304688 , 0.907897949219 
2018/05/16 11:27:09.996977 , 0.1044921875 , 0.4169921875 , 3.943359375 , 13.6444444444 , 7.34700854701 , -111.854456654 , -4.150390625 , 4.11987304688 , 0.907897949219 
2018/05/16 11:27:10.289620 , 0.1044921875 , 0.4169921875 , 3.943359375 , 13.6444444444 , 7.34700854701 , -111.854456654 , -4.150390625 , 4.11987304688 , 0.907897949219 
2018/05/16 11:27:10.582127 , 0.1044921875 , 0.4169921875 , 3.943359375 , 13.6444444444 , 7.34700854701 , -111.854456654 , -4.150390625 , 4.11987304688 , 0.907897949219 
2018/05/16 11:27:10.874751 , 0.1044921875 , 0.4169921875 , 3.943359375 , 10.7956043956 , 8.39658119658 , -111.854456654 , -4.46319580078 , 3.93676757812 , -1.41906738281 
2018/05/16 11:27:11.167405 , 0.220703125 , 0.134765625 , 4.3251953125 , 10.7956043956 , 8.39658119658 , -111.854456654 , -4.46319580078 , 3.93676757812 , -1.41906738281 
2018/05/16 11:27:11.459939 , 0.220703125 , 0.134765625 , 4.3251953125 , 10.7956043956 , 8.39658119658 , -111.854456654 , -4.46319580078 , 3.93676757812 , -1.41906738281 
2018/05/16 11:27:11.752490 , 0.220703125 , 0.134765625 , 4.3251953125 , 10.7956043956 , 8.39658119658 , -111.854456654 , -3.60870361328 , 4.44030761719 , -0.556945800781 
2018/05/16 11:27:12.045201 , 0.123046875 , 0.1630859375 , 4.0712890625 , 11.9951159951 , 6.1474969475 , -112.454212454 , -3.60870361328 , 4.44030761719 , -0.556945800781 
2018/05/16 11:27:12.337788 , 0.123046875 , 0.1630859375 , 4.0712890625 , 11.9951159951 , 6.1474969475 , -112.454212454 , -3.60870361328 , 4.44030761719 , -0.556945800781 
2018/05/16 11:27:12.630275 , 0.123046875 , 0.1630859375 , 4.0712890625 , 11.9951159951 , 6.1474969475 , -112.454212454 , -3.60870361328 , 4.44030761719 , -0.556945800781 
2018/05/16 11:27:12.922968 , 0.091796875 , 0.208984375 , 4.029296875 , 12.7448107448 , 7.19706959707 , -111.704517705 , -4.05883789062 , 5.59234619141 , -0.495910644531 
2018/05/16 11:27:13.215502 , 0.091796875 , 0.208984375 , 4.029296875 , 12.7448107448 , 7.19706959707 , -111.704517705 , -4.05883789062 , 5.59234619141 , -0.495910644531 
2018/05/16 11:27:13.508068 , 0.091796875 , 0.208984375 , 4.029296875 , 12.7448107448 , 7.19706959707 , -111.704517705 , -4.05883789062 , 5.59234619141 , -0.495910644531 
2018/05/16 11:27:13.800634 , 0.091796875 , 0.208984375 , 4.029296875 , 12.5948717949 , 9.14627594628 , -111.854456654 , -4.60052490234 , 4.60052490234 , 0.389099121094 
2018/05/16 11:27:14.093199 , 0.1171875 , 0.2880859375 , 4.2294921875 , 12.5948717949 , 9.14627594628 , -111.854456654 , -4.60052490234 , 4.60052490234 , 0.389099121094 
2018/05/16 11:27:14.385827 , 0.1171875 , 0.2880859375 , 4.2294921875 , 12.5948717949 , 9.14627594628 , -111.854456654 , -4.60052490234 , 4.60052490234 , 0.389099121094 
2018/05/16 11:27:14.678429 , 0.1171875 , 0.2880859375 , 4.2294921875 , 12.5948717949 , 9.14627594628 , -111.854456654 , -4.60052490234 , 4.60052490234 , 0.389099121094 
2018/05/16 11:27:14.971029 , -0.3017578125 , 0.099609375 , 4.1259765625 , 13.4945054945 , 6.74725274725 , -112.004395604 , -4.22668457031 , 3.59344482422 , -0.1220703125 
2018/05/16 11:27:15.263693 , -0.3017578125 , 0.099609375 , 4.1259765625 , 13.4945054945 , 6.74725274725 , -112.004395604 , -4.22668457031 , 3.59344482422 , -0.1220703125 
2018/05/16 11:27:15.556182 , -0.3017578125 , 0.099609375 , 4.1259765625 , 13.4945054945 , 6.74725274725 , -112.004395604 , -4.22668457031 , 3.59344482422 , -0.1220703125 
2018/05/16 11:27:15.848770 , -0.3017578125 , 0.099609375 , 4.1259765625 , 12.4449328449 , 6.1474969475 , -111.404639805 , -5.14221191406 , 5.41687011719 , -1.35803222656 
2018/05/16 11:27:16.141478 , -0.017578125 , -0.0341796875 , 4.1201171875 , 12.4449328449 , 6.1474969475 , -111.404639805 , -5.14221191406 , 5.41687011719 , -1.35803222656 
2018/05/16 11:27:16.433944 , -0.017578125 , -0.0341796875 , 4.1201171875 , 12.4449328449 , 6.1474969475 , -111.404639805 , -5.14221191406 , 5.41687011719 , -1.35803222656 
2018/05/16 11:27:16.726534 , -0.017578125 , -0.0341796875 , 4.1201171875 , 12.4449328449 , 6.1474969475 , -111.404639805 , -5.82885742188 , 4.53186035156 , -0.1220703125 
2018/05/16 11:27:17.019135 , -0.0791015625 , 0.0576171875 , 4.0556640625 , 12.7448107448 , 6.74725274725 , -112.004395604 , -5.82885742188 , 4.53186035156 , -0.1220703125 
2018/05/16 11:27:17.311948 , -0.0791015625 , 0.0576171875 , 4.0556640625 , 12.7448107448 , 6.74725274725 , -112.004395604 , -5.82885742188 , 4.53186035156 , -0.1220703125 
2018/05/16 11:27:17.604261 , -0.0791015625 , 0.0576171875 , 4.0556640625 , 12.7448107448 , 6.74725274725 , -112.004395604 , -5.82885742188 , 4.53186035156 , -0.1220703125 
2018/05/16 11:27:17.896838 , 0.0703125 , 0.107421875 , 4.0771484375 , 12.4449328449 , 6.1474969475 , -112.754090354 , -5.02014160156 , 4.91333007812 , -1.28936767578 
2018/05/16 11:27:18.189616 , 0.0703125 , 0.107421875 , 4.0771484375 , 12.4449328449 , 6.1474969475 , -112.754090354 , -5.02014160156 , 4.91333007812 , -1.28936767578 
2018/05/16 11:27:18.482115 , 0.0703125 , 0.107421875 , 4.0771484375 , 12.4449328449 , 6.1474969475 , -112.754090354 , -5.02014160156 , 4.91333007812 , -1.28936767578 
2018/05/16 11:27:18.774596 , 0.0703125 , 0.107421875 , 4.0771484375 , 12.4449328449 , 6.1474969475 , -112.754090354 , -3.12042236328 , 3.44848632812 , -1.89971923828 
2018/05/16 11:27:19.067191 , 0.025390625 , 0.1103515625 , 4.2724609375 , 12.4449328449 , 6.44737484737 , -109.305494505 , -3.12042236328 , 3.44848632812 , -1.89971923828 
2018/05/16 11:27:19.359919 , 0.025390625 , 0.1103515625 , 4.2724609375 , 12.4449328449 , 6.44737484737 , -109.305494505 , -3.12042236328 , 3.44848632812 , -1.89971923828 
2018/05/16 11:27:19.652434 , 0.025390625 , 0.1103515625 , 4.2724609375 , 12.4449328449 , 6.44737484737 , -109.305494505 , -3.12042236328 , 3.44848632812 , -1.89971923828 
2018/05/16 11:27:19.944922 , -0.09375 , 0.1005859375 , 4.2275390625 , 12.294993895 , 8.0967032967 , -111.854456654 , -4.2724609375 , 5.27954101562 , -0.42724609375 
2018/05/16 11:27:20.237574 , -0.09375 , 0.1005859375 , 4.2275390625 , 12.294993895 , 8.0967032967 , -111.854456654 , -4.2724609375 , 5.27954101562 , -0.42724609375 
2018/05/16 11:27:20.530249 , -0.09375 , 0.1005859375 , 4.2275390625 , 12.294993895 , 8.0967032967 , -111.854456654 , -4.2724609375 , 5.27954101562 , -0.42724609375 
2018/05/16 11:27:20.822674 , -0.09375 , 0.1005859375 , 4.2275390625 , 12.5948717949 , 7.34700854701 , -111.554578755 , -4.22668457031 , 5.01251220703 , 0.503540039062 
2018/05/16 11:27:21.115272 , -0.0244140625 , 0.01953125 , 4.025390625 , 12.5948717949 , 7.34700854701 , -111.554578755 , -4.22668457031 , 5.01251220703 , 0.503540039062 
2018/05/16 11:27:21.407855 , -0.0244140625 , 0.01953125 , 4.025390625 , 12.5948717949 , 7.34700854701 , -111.554578755 , -4.22668457031 , 5.01251220703 , 0.503540039062 
2018/05/16 11:27:21.700429 , -0.0244140625 , 0.01953125 , 4.025390625 , 12.5948717949 , 7.34700854701 , -111.554578755 , -4.01306152344 , 4.21905517578 , -0.297546386719 
2018/05/16 11:27:21.993031 , 0.0068359375 , 0.171875 , 4.1962890625 , 11.8451770452 , 6.59731379731 , -111.854456654 , -4.01306152344 , 4.21905517578 , -0.297546386719 
2018/05/16 11:27:22.285705 , 0.0068359375 , 0.171875 , 4.1962890625 , 11.8451770452 , 6.59731379731 , -111.854456654 , -4.01306152344 , 4.21905517578 , -0.297546386719 
2018/05/16 11:27:22.578186 , 0.0068359375 , 0.171875 , 4.1962890625 , 11.8451770452 , 6.59731379731 , -111.854456654 , -4.01306152344 , 4.21905517578 , -0.297546386719 
2018/05/16 11:27:22.870787 , 0.0068359375 , 0.171875 , 4.1962890625 , 12.8947496947 , 6.59731379731 , -111.554578755 , -5.95855712891 , 4.44793701172 , -0.518798828125 
2018/05/16 11:27:23.163445 , -0.0576171875 , 0.0498046875 , 4.2119140625 , 12.8947496947 , 6.59731379731 , -111.554578755 , -5.95855712891 , 4.44793701172 , -0.518798828125 
2018/05/16 11:27:23.455921 , -0.0576171875 , 0.0498046875 , 4.2119140625 , 12.8947496947 , 6.59731379731 , -111.554578755 , -5.95855712891 , 4.44793701172 , -0.518798828125 
2018/05/16 11:27:23.748497 , -0.0576171875 , 0.0498046875 , 4.2119140625 , 12.8947496947 , 6.59731379731 , -111.554578755 , -4.93621826172 , 5.615234375 , 0.129699707031 
2018/05/16 11:27:24.041061 , 0.119140625 , 0.0625 , 4.4111328125 , 11.8451770452 , 5.54774114774 , -111.554578755 , -4.93621826172 , 5.615234375 , 0.129699707031 
2018/05/16 11:27:24.333872 , 0.119140625 , 0.0625 , 4.4111328125 , 11.8451770452 , 5.54774114774 , -111.554578755 , -4.93621826172 , 5.615234375 , 0.129699707031 
2018/05/16 11:27:24.626252 , 0.119140625 , 0.0625 , 4.4111328125 , 11.8451770452 , 5.54774114774 , -111.554578755 , -4.93621826172 , 5.615234375 , 0.129699707031 
2018/05/16 11:27:24.918798 , 0.16796875 , 0.205078125 , 4.0263671875 , 12.7448107448 , 6.74725274725 , -113.053968254 , -4.19616699219 , 4.07409667969 , -1.57165527344 
2018/05/16 11:27:25.211517 , 0.16796875 , 0.205078125 , 4.0263671875 , 12.7448107448 , 6.74725274725 , -113.053968254 , -4.19616699219 , 4.07409667969 , -1.57165527344 
2018/05/16 11:27:25.503933 , 0.16796875 , 0.205078125 , 4.0263671875 , 12.7448107448 , 6.74725274725 , -113.053968254 , -4.19616699219 , 4.07409667969 , -1.57165527344 
2018/05/16 11:27:25.796627 , 0.16796875 , 0.205078125 , 4.0263671875 , 12.4449328449 , 7.79682539683 , -112.004395604 , -4.08935546875 , 4.31060791016 , -1.48773193359 
2018/05/16 11:27:26.089126 , -0.0625 , 0.0234375 , 4.3916015625 , 12.4449328449 , 7.79682539683 , -112.004395604 , -4.08935546875 , 4.31060791016 , -1.48773193359 
2018/05/16 11:27:26.381834 , -0.0625 , 0.0234375 , 4.3916015625 , 12.4449328449 , 7.79682539683 , -112.004395604 , -4.08935546875 , 4.31060791016 , -1.48773193359 
2018/05/16 11:27:26.674263 , -0.0625 , 0.0234375 , 4.3916015625 , 12.4449328449 , 7.79682539683 , -112.004395604 , -4.08935546875 , 4.31060791016 , -1.48773193359 
2018/05/16 11:27:26.966878 , -0.009765625 , 0.20703125 , 4.197265625 , 12.4449328449 , 7.79682539683 , -112.004395604 , -4.0283203125 , 4.69970703125 , -2.00653076172 
2018/05/16 11:27:27.259516 , -0.009765625 , 0.20703125 , 4.197265625 , 12.4449328449 , 7.79682539683 , -112.004395604 , -4.0283203125 , 4.69970703125 , -2.00653076172 
2018/05/16 11:27:27.552028 , -0.009765625 , 0.20703125 , 4.197265625 , 12.4449328449 , 7.79682539683 , -112.004395604 , -4.0283203125 , 4.69970703125 , -2.00653076172 
2018/05/16 11:27:27.844562 , -0.009765625 , 0.20703125 , 4.197265625 , 13.3445665446 , 6.29743589744 , -110.804884005 , -2.88391113281 , 4.28009033203 , -0.396728515625 
2018/05/16 11:27:28.137122 , -0.1474609375 , 0.1640625 , 4.201171875 , 13.3445665446 , 6.29743589744 , -110.804884005 , -2.88391113281 , 4.28009033203 , -0.396728515625 
2018/05/16 11:27:28.429782 , -0.1474609375 , 0.1640625 , 4.201171875 , 13.3445665446 , 6.29743589744 , -110.804884005 , -2.88391113281 , 4.28009033203 , -0.396728515625 
2018/05/16 11:27:28.722367 , -0.1474609375 , 0.1640625 , 4.201171875 , 13.3445665446 , 6.29743589744 , -110.804884005 , -3.90625 , 3.82995605469 , -1.55639648438 
2018/05/16 11:27:29.014900 , 0.0302734375 , 0.2568359375 , 4.2060546875 , 13.3445665446 , 6.29743589744 , -110.804884005 , -3.90625 , 3.82995605469 , -1.55639648438 
2018/05/16 11:27:29.307608 , 0.0302734375 , 0.2568359375 , 4.2060546875 , 13.3445665446 , 6.29743589744 , -110.804884005 , -3.90625 , 3.82995605469 , -1.55639648438 
2018/05/16 11:27:29.600257 , 0.0302734375 , 0.2568359375 , 4.2060546875 , 13.3445665446 , 6.29743589744 , -110.804884005 , -3.90625 , 3.82995605469 , -1.55639648438 
2018/05/16 11:27:29.892793 , -0.3935546875 , 0.0849609375 , 4.111328125 , 11.9951159951 , 5.69768009768 , -112.004395604 , -4.21905517578 , 5.14221191406 , 1.13677978516 
2018/05/16 11:27:30.185373 , -0.3935546875 , 0.0849609375 , 4.111328125 , 11.9951159951 , 5.69768009768 , -112.004395604 , -4.21905517578 , 5.14221191406 , 1.13677978516 
2018/05/16 11:27:30.477855 , -0.3935546875 , 0.0849609375 , 4.111328125 , 11.9951159951 , 5.69768009768 , -112.004395604 , -4.21905517578 , 5.14221191406 , 1.13677978516 
2018/05/16 11:27:30.770327 , -0.3935546875 , 0.0849609375 , 4.111328125 , 11.9951159951 , 5.69768009768 , -112.004395604 , -5.30242919922 , 6.2255859375 , -0.717163085938 
2018/05/16 11:27:31.062912 , 0.2275390625 , -0.103515625 , 4.11328125 , 11.9951159951 , 5.69768009768 , -112.004395604 , -5.30242919922 , 6.2255859375 , -0.717163085938 
2018/05/16 11:27:31.355480 , 0.2275390625 , -0.103515625 , 4.11328125 , 11.9951159951 , 5.69768009768 , -112.004395604 , -5.30242919922 , 6.2255859375 , -0.717163085938 
2018/05/16 11:27:31.648090 , 0.2275390625 , -0.103515625 , 4.11328125 , 11.9951159951 , 5.69768009768 , -112.004395604 , -5.30242919922 , 6.2255859375 , -0.717163085938 
2018/05/16 11:27:31.940661 , -0.1962890625 , -0.0234375 , 4.076171875 , 11.6952380952 , 4.64810744811 , -110.055189255 , -4.76837158203 , 5.38635253906 , -0.862121582031 
2018/05/16 11:27:32.233381 , -0.1962890625 , -0.0234375 , 4.076171875 , 11.6952380952 , 4.64810744811 , -110.055189255 , -4.76837158203 , 5.38635253906 , -0.862121582031 
2018/05/16 11:27:32.525895 , -0.1962890625 , -0.0234375 , 4.076171875 , 11.6952380952 , 4.64810744811 , -110.055189255 , -4.76837158203 , 5.38635253906 , -0.862121582031 
2018/05/16 11:27:32.818334 , -0.1962890625 , -0.0234375 , 4.076171875 , 11.6952380952 , 4.64810744811 , -110.055189255 , -5.09643554688 , 4.86755371094 , -0.6103515625 
2018/05/16 11:27:33.110942 , 0.150390625 , 0.033203125 , 3.9443359375 , 11.6952380952 , 4.64810744811 , -110.055189255 , -5.09643554688 , 4.86755371094 , -0.6103515625 
2018/05/16 11:27:33.403499 , 0.150390625 , 0.033203125 , 3.9443359375 , 11.6952380952 , 4.64810744811 , -110.055189255 , -5.09643554688 , 4.86755371094 , -0.6103515625 
2018/05/16 11:27:33.696117 , 0.150390625 , 0.033203125 , 3.9443359375 , 11.6952380952 , 4.64810744811 , -110.055189255 , -4.92095947266 , 4.49371337891 , 1.35803222656 
2018/05/16 11:27:33.988652 , -0.13671875 , -0.0029296875 , 3.908203125 , 10.7956043956 , 7.34700854701 , -113.953601954 , -4.92095947266 , 4.49371337891 , 1.35803222656 
2018/05/16 11:27:34.281300 , -0.13671875 , -0.0029296875 , 3.908203125 , 10.7956043956 , 7.34700854701 , -113.953601954 , -4.92095947266 , 4.49371337891 , 1.35803222656 
2018/05/16 11:27:34.573754 , -0.13671875 , -0.0029296875 , 3.908203125 , 10.7956043956 , 7.34700854701 , -113.953601954 , -4.92095947266 , 4.49371337891 , 1.35803222656 
2018/05/16 11:27:34.866365 , -0.13671875 , -0.0029296875 , 3.908203125 , 10.7956043956 , 7.34700854701 , -113.953601954 , -4.56237792969 , 3.99017333984 , -0.839233398438 
2018/05/16 11:27:35.159107 , -0.0888671875 , 0.10546875 , 4.2119140625 , 10.7956043956 , 7.34700854701 , -113.953601954 , -4.56237792969 , 3.99017333984 , -0.839233398438 
2018/05/16 11:27:35.451549 , -0.0888671875 , 0.10546875 , 4.2119140625 , 10.7956043956 , 7.34700854701 , -113.953601954 , -4.56237792969 , 3.99017333984 , -0.839233398438 
2018/05/16 11:27:35.744098 , -0.0888671875 , 0.10546875 , 4.2119140625 , 10.7956043956 , 7.34700854701 , -113.953601954 , -4.14276123047 , 5.31005859375 , 0.709533691406 
2018/05/16 11:27:36.036757 , -0.1005859375 , 0.0751953125 , 4.0322265625 , 10.7956043956 , 7.34700854701 , -113.953601954 , -4.14276123047 , 5.31005859375 , 0.709533691406 
2018/05/16 11:27:36.377995 , -0.1005859375 , 0.0751953125 , 4.0322265625 , 10.7956043956 , 7.34700854701 , -113.953601954 , -4.14276123047 , 5.31005859375 , 0.709533691406 
2018/05/16 11:27:36.670549 , -0.1005859375 , 0.0751953125 , 4.0322265625 , 10.7956043956 , 7.34700854701 , -113.953601954 , -4.14276123047 , 5.31005859375 , 0.709533691406 
2018/05/16 11:27:36.963096 , -0.0908203125 , -0.056640625 , 4.3662109375 , 11.9951159951 , 5.69768009768 , -112.004395604 , -4.85992431641 , 3.86810302734 , 0.6103515625 
2018/05/16 11:27:37.255878 , -0.0908203125 , -0.056640625 , 4.3662109375 , 11.9951159951 , 5.69768009768 , -112.004395604 , -4.85992431641 , 3.86810302734 , 0.6103515625 
2018/05/16 11:27:37.548237 , -0.0908203125 , -0.056640625 , 4.3662109375 , 11.9951159951 , 5.69768009768 , -112.004395604 , -4.85992431641 , 3.86810302734 , 0.6103515625 
2018/05/16 11:27:37.840825 , -0.0908203125 , -0.056640625 , 4.3662109375 , 11.3953601954 , 7.19706959707 , -110.355067155 , -3.99780273438 , 5.28717041016 , 1.03759765625 
2018/05/16 11:27:38.133394 , -0.08984375 , 0.0 , 4.3291015625 , 11.3953601954 , 7.19706959707 , -110.355067155 , -3.99780273438 , 5.28717041016 , 1.03759765625 
2018/05/16 11:27:38.426071 , -0.08984375 , 0.0 , 4.3291015625 , 11.3953601954 , 7.19706959707 , -110.355067155 , -3.99780273438 , 5.28717041016 , 1.03759765625 
2018/05/16 11:27:38.718607 , -0.08984375 , 0.0 , 4.3291015625 , 11.3953601954 , 7.19706959707 , -110.355067155 , -3.27301025391 , 4.31823730469 , 0.0381469726562 
2018/05/16 11:27:39.011138 , 0.00390625 , 0.099609375 , 4.1611328125 , 11.3953601954 , 7.19706959707 , -110.355067155 , -3.27301025391 , 4.31823730469 , 0.0381469726562 
2018/05/16 11:27:39.303728 , 0.00390625 , 0.099609375 , 4.1611328125 , 11.3953601954 , 7.19706959707 , -110.355067155 , -3.27301025391 , 4.31823730469 , 0.0381469726562 
2018/05/16 11:27:39.596265 , 0.00390625 , 0.099609375 , 4.1611328125 , 11.3953601954 , 7.19706959707 , -110.355067155 , -3.27301025391 , 4.31823730469 , 0.0381469726562 
2018/05/16 11:27:39.888964 , 0.00390625 , 0.099609375 , 4.1611328125 , 11.3953601954 , 7.19706959707 , -110.355067155 , -5.32531738281 , 2.12097167969 , 0.831604003906 
2018/05/16 11:27:40.181708 , -0.087890625 , -0.025390625 , 4.1259765625 , 11.3953601954 , 7.19706959707 , -110.355067155 , -5.32531738281 , 2.12097167969 , 0.831604003906 
2018/05/16 11:27:40.473970 , -0.087890625 , -0.025390625 , 4.1259765625 , 11.3953601954 , 7.19706959707 , -110.355067155 , -5.32531738281 , 2.12097167969 , 0.831604003906 
2018/05/16 11:27:40.766648 , -0.087890625 , -0.025390625 , 4.1259765625 , 11.3953601954 , 7.19706959707 , -110.355067155 , -3.31878662109 , 5.03540039062 , -0.129699707031 
2018/05/16 11:27:41.059155 , 0.0244140625 , -0.0478515625 , 4.044921875 , 12.294993895 , 7.64688644689 , -112.154334554 , -3.31878662109 , 5.03540039062 , -0.129699707031 
2018/05/16 11:27:41.351763 , 0.0244140625 , -0.0478515625 , 4.044921875 , 12.294993895 , 7.64688644689 , -112.154334554 , -3.31878662109 , 5.03540039062 , -0.129699707031 
2018/05/16 11:27:41.644274 , 0.0244140625 , -0.0478515625 , 4.044921875 , 12.294993895 , 7.64688644689 , -112.154334554 , -3.31878662109 , 5.03540039062 , -0.129699707031 
2018/05/16 11:27:41.936855 , 0.03515625 , 0.0634765625 , 4.306640625 , 11.6952380952 , 7.49694749695 , -111.104761905 , -4.97436523438 , 4.28771972656 , -0.869750976562 
2018/05/16 11:27:42.229570 , 0.03515625 , 0.0634765625 , 4.306640625 , 11.6952380952 , 7.49694749695 , -111.104761905 , -4.97436523438 , 4.28771972656 , -0.869750976562 
2018/05/16 11:27:42.522067 , 0.03515625 , 0.0634765625 , 4.306640625 , 11.6952380952 , 7.49694749695 , -111.104761905 , -4.97436523438 , 4.28771972656 , -0.869750976562 
2018/05/16 11:27:42.814508 , 0.03515625 , 0.0634765625 , 4.306640625 , 12.5948717949 , 6.59731379731 , -112.604151404 , -4.94384765625 , 4.34112548828 , -0.221252441406 
2018/05/16 11:27:43.107059 , 0.017578125 , 0.3427734375 , 4.041015625 , 12.5948717949 , 6.59731379731 , -112.604151404 , -4.94384765625 , 4.34112548828 , -0.221252441406 
2018/05/16 11:27:43.399814 , 0.017578125 , 0.3427734375 , 4.041015625 , 12.5948717949 , 6.59731379731 , -112.604151404 , -4.94384765625 , 4.34112548828 , -0.221252441406 
2018/05/16 11:27:43.692294 , 0.017578125 , 0.3427734375 , 4.041015625 , 12.5948717949 , 6.59731379731 , -112.604151404 , -4.94384765625 , 4.34112548828 , -0.221252441406 
2018/05/16 11:27:43.984763 , -0.125 , 0.28515625 , 3.84765625 , 12.7448107448 , 7.79682539683 , -111.704517705 , -3.34167480469 , 4.83703613281 , -0.877380371094 
2018/05/16 11:27:44.277340 , -0.125 , 0.28515625 , 3.84765625 , 12.7448107448 , 7.79682539683 , -111.704517705 , -3.34167480469 , 4.83703613281 , -0.877380371094 
2018/05/16 11:27:44.569943 , -0.125 , 0.28515625 , 3.84765625 , 12.7448107448 , 7.79682539683 , -111.704517705 , -3.34167480469 , 4.83703613281 , -0.877380371094 
2018/05/16 11:27:44.862578 , -0.125 , 0.28515625 , 3.84765625 , 14.0942612943 , 7.49694749695 , -111.104761905 , -3.21197509766 , 4.28009033203 , -0.778198242188 
2018/05/16 11:27:45.155159 , -0.0341796875 , 0.1474609375 , 4.2080078125 , 14.0942612943 , 7.49694749695 , -111.104761905 , -3.21197509766 , 4.28009033203 , -0.778198242188 
2018/05/16 11:27:45.447760 , -0.0341796875 , 0.1474609375 , 4.2080078125 , 14.0942612943 , 7.49694749695 , -111.104761905 , -3.21197509766 , 4.28009033203 , -0.778198242188 
2018/05/16 11:27:45.740181 , -0.0341796875 , 0.1474609375 , 4.2080078125 , 14.0942612943 , 7.49694749695 , -111.104761905 , -4.31823730469 , 4.87518310547 , 0.106811523438 
2018/05/16 11:27:46.032752 , -0.060546875 , -0.0068359375 , 4.060546875 , 12.294993895 , 7.34700854701 , -111.554578755 , -4.31823730469 , 4.87518310547 , 0.106811523438 
2018/05/16 11:27:46.325317 , -0.060546875 , -0.0068359375 , 4.060546875 , 12.294993895 , 7.34700854701 , -111.554578755 , -4.31823730469 , 4.87518310547 , 0.106811523438 
2018/05/16 11:27:46.617880 , -0.060546875 , -0.0068359375 , 4.060546875 , 12.294993895 , 7.34700854701 , -111.554578755 , -4.31823730469 , 4.87518310547 , 0.106811523438 
2018/05/16 11:27:46.910548 , 0.310546875 , 0.1181640625 , 4.1806640625 , 11.9951159951 , 6.44737484737 , -111.404639805 , -3.67736816406 , 4.13513183594 , 0.694274902344 
2018/05/16 11:27:47.203161 , 0.310546875 , 0.1181640625 , 4.1806640625 , 11.9951159951 , 6.44737484737 , -111.404639805 , -3.67736816406 , 4.13513183594 , 0.694274902344 
