Connecting to 24:71:89:C1:0D:07
time ,acc-x,acc-y,acc-z ,mag-x,mag-y,mag-z ,gyr-x,gyr-y,gyr-z 
2018/05/16 11:33:22.324485 , 0.0 , 0.0 , 0.0 , 0.0 , 0.0 , 0.0 , 0.0 , 0.0 , 0.0 
2018/05/16 11:33:22.583494 , 0.0 , 0.0 , 0.0 , 0.0 , 0.0 , 0.0 , 0.0 , 0.0 , 0.0 
2018/05/16 11:33:22.875866 , 0.0 , 0.0 , 0.0 , 0.0 , 0.0 , 0.0 , -4.40216064453 , 3.47900390625 , 0.0457763671875 
2018/05/16 11:33:23.168440 , 0.032958984375 , 0.017578125 , 1.0537109375 , 0.0 , 0.0 , 0.0 , -4.40216064453 , 3.47900390625 , 0.0457763671875 
2018/05/16 11:33:23.460894 , 0.032958984375 , 0.017578125 , 1.0537109375 , 0.0 , 0.0 , 0.0 , -4.40216064453 , 3.47900390625 , 0.0457763671875 
2018/05/16 11:33:23.753397 , 0.032958984375 , 0.017578125 , 1.0537109375 , 0.0 , 0.0 , 0.0 , -4.40216064453 , 3.47900390625 , 0.0457763671875 
2018/05/16 11:33:24.045871 , 0.032958984375 , 0.017578125 , 1.0537109375 , 0.0 , 0.0 , 0.0 , -2.03704833984 , 3.08990478516 , 0.709533691406 
2018/05/16 11:33:24.338501 , 0.01806640625 , 0.02783203125 , 0.981689453125 , 0.0 , 0.0 , 0.0 , -2.03704833984 , 3.08990478516 , 0.709533691406 
2018/05/16 11:33:24.630931 , 0.01806640625 , 0.02783203125 , 0.981689453125 , 0.0 , 0.0 , 0.0 , -2.03704833984 , 3.08990478516 , 0.709533691406 
2018/05/16 11:33:24.923416 , 0.01806640625 , 0.02783203125 , 0.981689453125 , 0.0 , 0.0 , 0.0 , -2.92205810547 , 4.50897216797 , 2.05993652344 
2018/05/16 11:33:25.216036 , 0.0107421875 , -0.001708984375 , 1.02368164062 , 10.9455433455 , 6.1474969475 , -112.004395604 , -2.92205810547 , 4.50897216797 , 2.05993652344 
2018/05/16 11:33:25.508430 , 0.0107421875 , -0.001708984375 , 1.02368164062 , 10.9455433455 , 6.1474969475 , -112.004395604 , -2.92205810547 , 4.50897216797 , 2.05993652344 
2018/05/16 11:33:25.800917 , 0.0107421875 , -0.001708984375 , 1.02368164062 , 10.9455433455 , 6.1474969475 , -112.004395604 , -2.92205810547 , 4.50897216797 , 2.05993652344 
2018/05/16 11:33:26.093626 , -0.0390625 , 0.03173828125 , 1.0234375 , 13.6444444444 , 5.84761904762 , -111.554578755 , -3.662109375 , 5.96618652344 , -0.0534057617188 
2018/05/16 11:33:26.385995 , -0.0390625 , 0.03173828125 , 1.0234375 , 13.6444444444 , 5.84761904762 , -111.554578755 , -3.662109375 , 5.96618652344 , -0.0534057617188 
2018/05/16 11:33:26.678510 , -0.0390625 , 0.03173828125 , 1.0234375 , 13.6444444444 , 5.84761904762 , -111.554578755 , -3.662109375 , 5.96618652344 , -0.0534057617188 
2018/05/16 11:33:26.970934 , -0.0390625 , 0.03173828125 , 1.0234375 , 11.8451770452 , 6.59731379731 , -111.254700855 , -4.65393066406 , 3.20434570312 , -1.44958496094 
2018/05/16 11:33:27.263640 , 0.030517578125 , 0.037353515625 , 1.052734375 , 11.8451770452 , 6.59731379731 , -111.254700855 , -4.65393066406 , 3.20434570312 , -1.44958496094 
2018/05/16 11:33:27.555984 , 0.030517578125 , 0.037353515625 , 1.052734375 , 11.8451770452 , 6.59731379731 , -111.254700855 , -4.65393066406 , 3.20434570312 , -1.44958496094 
2018/05/16 11:33:27.848467 , 0.030517578125 , 0.037353515625 , 1.052734375 , 11.8451770452 , 6.59731379731 , -111.254700855 , -4.65393066406 , 3.20434570312 , -1.44958496094 
2018/05/16 11:33:28.140999 , 0.089111328125 , 0.033203125 , 0.995361328125 , 10.9455433455 , 7.19706959707 , -112.454212454 , -4.85992431641 , 3.38745117188 , -0.946044921875 
2018/05/16 11:33:28.433478 , 0.089111328125 , 0.033203125 , 0.995361328125 , 10.9455433455 , 7.19706959707 , -112.454212454 , -4.85992431641 , 3.38745117188 , -0.946044921875 
2018/05/16 11:33:28.725964 , 0.089111328125 , 0.033203125 , 0.995361328125 , 10.9455433455 , 7.19706959707 , -112.454212454 , -4.85992431641 , 3.38745117188 , -0.946044921875 
2018/05/16 11:33:29.018614 , 0.089111328125 , 0.033203125 , 0.995361328125 , 11.8451770452 , 7.34700854701 , -110.505006105 , -5.06591796875 , 3.50952148438 , -1.49536132812 
2018/05/16 11:33:29.311090 , -0.0126953125 , 0.056640625 , 1.0283203125 , 11.8451770452 , 7.34700854701 , -110.505006105 , -5.06591796875 , 3.50952148438 , -1.49536132812 
2018/05/16 11:33:29.603882 , -0.0126953125 , 0.056640625 , 1.0283203125 , 11.8451770452 , 7.34700854701 , -110.505006105 , -5.06591796875 , 3.50952148438 , -1.49536132812 
2018/05/16 11:33:29.896554 , -0.0126953125 , 0.056640625 , 1.0283203125 , 11.8451770452 , 7.34700854701 , -110.505006105 , -3.96728515625 , 6.14166259766 , -1.72424316406 
2018/05/16 11:33:30.188504 , -0.060546875 , 0.008544921875 , 1.05786132812 , 10.7956043956 , 8.0967032967 , -111.854456654 , -3.96728515625 , 6.14166259766 , -1.72424316406 
2018/05/16 11:33:30.480730 , -0.060546875 , 0.008544921875 , 1.05786132812 , 10.7956043956 , 8.0967032967 , -111.854456654 , -3.96728515625 , 6.14166259766 , -1.72424316406 
2018/05/16 11:33:30.773183 , -0.060546875 , 0.008544921875 , 1.05786132812 , 10.7956043956 , 8.0967032967 , -111.854456654 , -3.96728515625 , 6.14166259766 , -1.72424316406 
2018/05/16 11:33:31.114768 , 0.010986328125 , 0.009765625 , 1.06298828125 , 11.5452991453 , 6.29743589744 , -111.254700855 , -5.47027587891 , 5.54656982422 , -0.282287597656 
2018/05/16 11:33:31.407310 , 0.010986328125 , 0.009765625 , 1.06298828125 , 11.5452991453 , 6.29743589744 , -111.254700855 , -5.47027587891 , 5.54656982422 , -0.282287597656 
2018/05/16 11:33:31.699727 , 0.010986328125 , 0.009765625 , 1.06298828125 , 11.5452991453 , 6.29743589744 , -111.254700855 , -5.47027587891 , 5.54656982422 , -0.282287597656 
2018/05/16 11:33:31.992590 , 0.010986328125 , 0.009765625 , 1.06298828125 , 11.3953601954 , 6.1474969475 , -111.704517705 , -4.08172607422 , 5.62286376953 , -1.41143798828 
2018/05/16 11:33:32.333616 , 0.060791015625 , 0.02880859375 , 1.06176757812 , 11.3953601954 , 6.1474969475 , -111.704517705 , -4.08172607422 , 5.62286376953 , -1.41143798828 
2018/05/16 11:33:32.626055 , 0.060791015625 , 0.02880859375 , 1.06176757812 , 11.3953601954 , 6.1474969475 , -111.704517705 , -4.08172607422 , 5.62286376953 , -1.41143798828 
2018/05/16 11:33:32.918506 , 0.060791015625 , 0.02880859375 , 1.06176757812 , 11.3953601954 , 6.1474969475 , -111.704517705 , -4.16564941406 , 2.89916992188 , 0.373840332031 
2018/05/16 11:33:33.211076 , -0.039306640625 , -0.00341796875 , 1.01391601562 , 11.6952380952 , 6.74725274725 , -111.404639805 , -4.16564941406 , 2.89916992188 , 0.373840332031 
2018/05/16 11:33:33.503599 , -0.039306640625 , -0.00341796875 , 1.01391601562 , 11.6952380952 , 6.74725274725 , -111.404639805 , -4.16564941406 , 2.89916992188 , 0.373840332031 
2018/05/16 11:33:43.677036 , -0.039306640625 , -0.00341796875 , 1.01391601562 , 11.6952380952 , 6.74725274725 , -111.404639805 , -4.16564941406 , 2.89916992188 , 0.373840332031 
2018/05/16 11:33:43.969644 , 0.028564453125 , 0.008544921875 , 1.05859375 , 13.0446886447 , 6.74725274725 , -111.404639805 , -4.28771972656 , 4.79888916016 , 0.717163085938 
2018/05/16 11:33:44.262202 , 0.028564453125 , 0.008544921875 , 1.05859375 , 13.0446886447 , 6.74725274725 , -111.404639805 , -4.28771972656 , 4.79888916016 , 0.717163085938 
2018/05/16 11:33:44.554620 , 0.028564453125 , 0.008544921875 , 1.05859375 , 13.0446886447 , 6.74725274725 , -111.404639805 , -4.28771972656 , 4.79888916016 , 0.717163085938 
2018/05/16 11:33:44.847126 , 0.028564453125 , 0.008544921875 , 1.05859375 , 11.9951159951 , 5.69768009768 , -111.404639805 , -3.99017333984 , 4.11987304688 , -1.57928466797 
2018/05/16 11:33:45.139881 , -0.0087890625 , 0.031982421875 , 0.990234375 , 11.9951159951 , 5.69768009768 , -111.404639805 , -3.99017333984 , 4.11987304688 , -1.57928466797 
2018/05/16 11:33:45.432145 , -0.0087890625 , 0.031982421875 , 0.990234375 , 11.9951159951 , 5.69768009768 , -111.404639805 , -3.99017333984 , 4.11987304688 , -1.57928466797 
2018/05/16 11:33:45.724562 , -0.0087890625 , 0.031982421875 , 0.990234375 , 11.9951159951 , 5.69768009768 , -111.404639805 , -3.99017333984 , 4.11987304688 , -1.57928466797 
2018/05/16 11:33:46.017078 , -0.040771484375 , 0.083984375 , 1.05224609375 , 12.294993895 , 5.54774114774 , -111.854456654 , -3.08990478516 , 3.12805175781 , -0.762939453125 
2018/05/16 11:33:46.309535 , -0.040771484375 , 0.083984375 , 1.05224609375 , 12.294993895 , 5.54774114774 , -111.854456654 , -3.08990478516 , 3.12805175781 , -0.762939453125 
2018/05/16 11:33:46.602089 , -0.040771484375 , 0.083984375 , 1.05224609375 , 12.294993895 , 5.54774114774 , -111.854456654 , -3.08990478516 , 3.12805175781 , -0.762939453125 
2018/05/16 11:33:46.894516 , -0.040771484375 , 0.083984375 , 1.05224609375 , 12.5948717949 , 6.29743589744 , -110.804884005 , -4.49371337891 , 4.29534912109 , -2.76947021484 
2018/05/16 11:33:47.187154 , -0.045166015625 , 0.013427734375 , 1.01220703125 , 12.5948717949 , 6.29743589744 , -110.804884005 , -4.49371337891 , 4.29534912109 , -2.76947021484 
2018/05/16 11:33:47.479482 , -0.045166015625 , 0.013427734375 , 1.01220703125 , 12.5948717949 , 6.29743589744 , -110.804884005 , -4.49371337891 , 4.29534912109 , -2.76947021484 
2018/05/16 11:33:47.771967 , -0.045166015625 , 0.013427734375 , 1.01220703125 , 12.5948717949 , 6.29743589744 , -110.804884005 , -4.96673583984 , 4.30297851562 , -0.755310058594 
2018/05/16 11:33:48.064614 , 0.026123046875 , 0.0537109375 , 1.03198242188 , 13.0446886447 , 8.24664224664 , -111.704517705 , -4.96673583984 , 4.30297851562 , -0.755310058594 
2018/05/16 11:33:48.357007 , 0.026123046875 , 0.0537109375 , 1.03198242188 , 13.0446886447 , 8.24664224664 , -111.704517705 , -4.96673583984 , 4.30297851562 , -0.755310058594 
2018/05/16 11:33:48.649585 , 0.026123046875 , 0.0537109375 , 1.03198242188 , 13.0446886447 , 8.24664224664 , -111.704517705 , -4.96673583984 , 4.30297851562 , -0.755310058594 
2018/05/16 11:33:48.942061 , -0.04345703125 , 0.018310546875 , 1.09350585938 , 12.4449328449 , 6.74725274725 , -111.404639805 , -2.44903564453 , 4.73785400391 , -0.312805175781 
2018/05/16 11:33:49.234616 , -0.04345703125 , 0.018310546875 , 1.09350585938 , 12.4449328449 , 6.74725274725 , -111.404639805 , -2.44903564453 , 4.73785400391 , -0.312805175781 
2018/05/16 11:33:49.527011 , -0.04345703125 , 0.018310546875 , 1.09350585938 , 12.4449328449 , 6.74725274725 , -111.404639805 , -2.44903564453 , 4.73785400391 , -0.312805175781 
2018/05/16 11:33:49.819575 , -0.04345703125 , 0.018310546875 , 1.09350585938 , 12.4449328449 , 6.74725274725 , -111.404639805 , -3.10516357422 , 4.04357910156 , -0.343322753906 
2018/05/16 11:33:50.112308 , 0.0302734375 , 0.052978515625 , 1.0224609375 , 12.294993895 , 7.34700854701 , -110.205128205 , -3.10516357422 , 4.04357910156 , -0.343322753906 
2018/05/16 11:33:50.404770 , 0.0302734375 , 0.052978515625 , 1.0224609375 , 12.294993895 , 7.34700854701 , -110.205128205 , -3.10516357422 , 4.04357910156 , -0.343322753906 
2018/05/16 11:33:50.697018 , 0.0302734375 , 0.052978515625 , 1.0224609375 , 12.294993895 , 7.34700854701 , -110.205128205 , -3.10516357422 , 4.04357910156 , -0.343322753906 
2018/05/16 11:33:50.989582 , 0.010986328125 , 0.07958984375 , 1.02563476562 , 12.8947496947 , 6.29743589744 , -111.854456654 , -4.36401367188 , 3.39508056641 , -0.587463378906 
2018/05/16 11:33:51.282051 , 0.010986328125 , 0.07958984375 , 1.02563476562 , 12.8947496947 , 6.29743589744 , -111.854456654 , -4.36401367188 , 3.39508056641 , -0.587463378906 
2018/05/16 11:33:51.574527 , 0.010986328125 , 0.07958984375 , 1.02563476562 , 12.8947496947 , 6.29743589744 , -111.854456654 , -4.36401367188 , 3.39508056641 , -0.587463378906 
2018/05/16 11:33:51.866998 , 0.010986328125 , 0.07958984375 , 1.02563476562 , 12.294993895 , 6.29743589744 , -112.154334554 , -5.02014160156 , 3.15093994141 , 1.30462646484 
2018/05/16 11:33:52.159561 , -0.004638671875 , -0.000732421875 , 1.0185546875 , 12.294993895 , 6.29743589744 , -112.154334554 , -5.02014160156 , 3.15093994141 , 1.30462646484 
2018/05/16 11:33:52.452004 , -0.004638671875 , -0.000732421875 , 1.0185546875 , 12.294993895 , 6.29743589744 , -112.154334554 , -5.02014160156 , 3.15093994141 , 1.30462646484 
2018/05/16 11:33:52.744555 , -0.004638671875 , -0.000732421875 , 1.0185546875 , 12.294993895 , 6.29743589744 , -112.154334554 , -3.97491455078 , 3.36456298828 , -1.75476074219 
2018/05/16 11:33:53.037078 , 0.03759765625 , 0.050537109375 , 1.06958007812 , 11.3953601954 , 6.1474969475 , -110.055189255 , -3.97491455078 , 3.36456298828 , -1.75476074219 
2018/05/16 11:33:53.329646 , 0.03759765625 , 0.050537109375 , 1.06958007812 , 11.3953601954 , 6.1474969475 , -110.055189255 , -3.97491455078 , 3.36456298828 , -1.75476074219 
2018/05/16 11:33:53.622053 , 0.03759765625 , 0.050537109375 , 1.06958007812 , 11.3953601954 , 6.1474969475 , -110.055189255 , -3.97491455078 , 3.36456298828 , -1.75476074219 
2018/05/16 11:33:53.914287 , 0.03759765625 , 0.050537109375 , 1.06958007812 , 10.9455433455 , 8.54652014652 , -111.104761905 , -3.86047363281 , 3.57055664062 , 0.282287597656 
2018/05/16 11:33:54.206846 , -0.004638671875 , 0.017822265625 , 1.00170898438 , 10.9455433455 , 8.54652014652 , -111.104761905 , -3.86047363281 , 3.57055664062 , 0.282287597656 
2018/05/16 11:33:54.499598 , -0.004638671875 , 0.017822265625 , 1.00170898438 , 10.9455433455 , 8.54652014652 , -111.104761905 , -3.86047363281 , 3.57055664062 , 0.282287597656 
2018/05/16 11:33:54.792068 , -0.004638671875 , 0.017822265625 , 1.00170898438 , 10.9455433455 , 8.54652014652 , -111.104761905 , -5.30242919922 , 4.29534912109 , -1.08337402344 
2018/05/16 11:33:55.084569 , -0.03662109375 , 0.060791015625 , 1.05249023438 , 11.5452991453 , 7.34700854701 , -110.505006105 , -5.30242919922 , 4.29534912109 , -1.08337402344 
2018/05/16 11:33:55.377158 , -0.03662109375 , 0.060791015625 , 1.05249023438 , 11.5452991453 , 7.34700854701 , -110.505006105 , -5.30242919922 , 4.29534912109 , -1.08337402344 
2018/05/16 11:33:55.669548 , -0.03662109375 , 0.060791015625 , 1.05249023438 , 11.5452991453 , 7.34700854701 , -110.505006105 , -5.30242919922 , 4.29534912109 , -1.08337402344 
2018/05/16 11:33:55.962093 , -0.027587890625 , 0.0146484375 , 1.015625 , 11.5452991453 , 7.34700854701 , -110.505006105 , -4.11224365234 , 4.15802001953 , -1.05285644531 
2018/05/16 11:33:56.254686 , -0.027587890625 , 0.0146484375 , 1.015625 , 11.5452991453 , 7.34700854701 , -110.505006105 , -4.11224365234 , 4.15802001953 , -1.05285644531 
2018/05/16 11:33:56.547028 , -0.027587890625 , 0.0146484375 , 1.015625 , 11.5452991453 , 7.34700854701 , -110.505006105 , -4.11224365234 , 4.15802001953 , -1.05285644531 
2018/05/16 11:33:56.839658 , -0.027587890625 , 0.0146484375 , 1.015625 , 12.5948717949 , 7.04713064713 , -111.554578755 , -4.61578369141 , 4.89044189453 , -1.72424316406 
2018/05/16 11:33:57.132224 , -0.00244140625 , 0.013427734375 , 1.05908203125 , 12.5948717949 , 7.04713064713 , -111.554578755 , -4.61578369141 , 4.89044189453 , -1.72424316406 
2018/05/16 11:33:57.424675 , -0.00244140625 , 0.013427734375 , 1.05908203125 , 12.5948717949 , 7.04713064713 , -111.554578755 , -4.61578369141 , 4.89044189453 , -1.72424316406 
2018/05/16 11:33:57.717014 , -0.00244140625 , 0.013427734375 , 1.05908203125 , 12.5948717949 , 7.04713064713 , -111.554578755 , -4.61578369141 , 4.89044189453 , -1.72424316406 
2018/05/16 11:33:58.009695 , 0.047607421875 , 0.02197265625 , 1.02856445312 , 12.5948717949 , 7.04713064713 , -111.554578755 , -4.40979003906 , 3.85284423828 , -0.770568847656 
2018/05/16 11:33:58.302120 , 0.047607421875 , 0.02197265625 , 1.02856445312 , 12.5948717949 , 7.04713064713 , -111.554578755 , -4.40979003906 , 3.85284423828 , -0.770568847656 
2018/05/16 11:33:58.594586 , 0.047607421875 , 0.02197265625 , 1.02856445312 , 12.5948717949 , 7.04713064713 , -111.554578755 , -4.40979003906 , 3.85284423828 , -0.770568847656 
2018/05/16 11:33:58.887070 , 0.047607421875 , 0.02197265625 , 1.02856445312 , 9.74603174603 , 5.24786324786 , -110.804884005 , -4.28771972656 , 4.42504882812 , 0.732421875 
2018/05/16 11:33:59.179729 , 0.002685546875 , 0.0126953125 , 1.05419921875 , 9.74603174603 , 5.24786324786 , -110.804884005 , -4.28771972656 , 4.42504882812 , 0.732421875 
2018/05/16 11:33:59.472140 , 0.002685546875 , 0.0126953125 , 1.05419921875 , 9.74603174603 , 5.24786324786 , -110.804884005 , -4.28771972656 , 4.42504882812 , 0.732421875 
2018/05/16 11:33:59.764545 , 0.002685546875 , 0.0126953125 , 1.05419921875 , 9.74603174603 , 5.24786324786 , -110.804884005 , -3.68499755859 , 4.85992431641 , -0.724792480469 
2018/05/16 11:34:00.057449 , 0.0166015625 , 0.0244140625 , 1.07006835938 , 9.74603174603 , 5.24786324786 , -110.804884005 , -3.68499755859 , 4.85992431641 , -0.724792480469 
2018/05/16 11:34:00.349746 , 0.0166015625 , 0.0244140625 , 1.07006835938 , 9.74603174603 , 5.24786324786 , -110.804884005 , -3.68499755859 , 4.85992431641 , -0.724792480469 
2018/05/16 11:34:00.642086 , 0.0166015625 , 0.0244140625 , 1.07006835938 , 9.74603174603 , 5.24786324786 , -110.804884005 , -3.68499755859 , 4.85992431641 , -0.724792480469 
2018/05/16 11:34:00.934569 , -0.001220703125 , -0.007568359375 , 0.97412109375 , 11.8451770452 , 5.54774114774 , -111.254700855 , -4.96673583984 , 4.75311279297 , 0.228881835938 
2018/05/16 11:34:01.227274 , -0.001220703125 , -0.007568359375 , 0.97412109375 , 11.8451770452 , 5.54774114774 , -111.254700855 , -4.96673583984 , 4.75311279297 , 0.228881835938 
2018/05/16 11:34:01.519601 , -0.001220703125 , -0.007568359375 , 0.97412109375 , 11.8451770452 , 5.54774114774 , -111.254700855 , -4.96673583984 , 4.75311279297 , 0.228881835938 
2018/05/16 11:34:01.812105 , -0.001220703125 , -0.007568359375 , 0.97412109375 , 11.8451770452 , 5.54774114774 , -111.254700855 , -4.79888916016 , 3.65447998047 , 0.251770019531 
2018/05/16 11:34:02.104710 , 0.044677734375 , 0.049560546875 , 1.04052734375 , 11.8451770452 , 5.54774114774 , -111.254700855 , -4.79888916016 , 3.65447998047 , 0.251770019531 
2018/05/16 11:34:02.397216 , 0.044677734375 , 0.049560546875 , 1.04052734375 , 11.8451770452 , 5.54774114774 , -111.254700855 , -4.79888916016 , 3.65447998047 , 0.251770019531 
2018/05/16 11:34:02.689636 , 0.044677734375 , 0.049560546875 , 1.04052734375 , 11.8451770452 , 5.54774114774 , -111.254700855 , -4.79888916016 , 3.65447998047 , 0.251770019531 
2018/05/16 11:34:02.982134 , 0.0048828125 , 0.026123046875 , 1.01391601562 , 11.8451770452 , 5.54774114774 , -111.254700855 , -4.19616699219 , 4.76837158203 , 1.12152099609 
2018/05/16 11:34:03.274665 , 0.0048828125 , 0.026123046875 , 1.01391601562 , 11.8451770452 , 5.54774114774 , -111.254700855 , -4.19616699219 , 4.76837158203 , 1.12152099609 
2018/05/16 11:34:03.567125 , 0.0048828125 , 0.026123046875 , 1.01391601562 , 11.8451770452 , 5.54774114774 , -111.254700855 , -4.19616699219 , 4.76837158203 , 1.12152099609 
2018/05/16 11:34:03.859621 , 0.0048828125 , 0.026123046875 , 1.01391601562 , 11.5452991453 , 6.29743589744 , -112.604151404 , -3.31878662109 , 6.45446777344 , -0.808715820312 
2018/05/16 11:34:04.152344 , -0.030517578125 , 0.007568359375 , 0.99755859375 , 11.5452991453 , 6.29743589744 , -112.604151404 , -3.31878662109 , 6.45446777344 , -0.808715820312 
2018/05/16 11:34:04.444655 , -0.030517578125 , 0.007568359375 , 0.99755859375 , 11.5452991453 , 6.29743589744 , -112.604151404 , -3.31878662109 , 6.45446777344 , -0.808715820312 
2018/05/16 11:34:04.737307 , -0.030517578125 , 0.007568359375 , 0.99755859375 , 11.5452991453 , 6.29743589744 , -112.604151404 , -3.70788574219 , 4.93621826172 , -0.732421875 
2018/05/16 11:34:05.029622 , -0.000244140625 , 0.00244140625 , 1.0283203125 , 12.7448107448 , 7.19706959707 , -111.704517705 , -3.70788574219 , 4.93621826172 , -0.732421875 
2018/05/16 11:34:05.322171 , -0.000244140625 , 0.00244140625 , 1.0283203125 , 12.7448107448 , 7.19706959707 , -111.704517705 , -3.70788574219 , 4.93621826172 , -0.732421875 
2018/05/16 11:34:05.614625 , -0.000244140625 , 0.00244140625 , 1.0283203125 , 12.7448107448 , 7.19706959707 , -111.704517705 , -3.70788574219 , 4.93621826172 , -0.732421875 
2018/05/16 11:34:05.907140 , -0.000244140625 , 0.00244140625 , 1.0283203125 , 12.7448107448 , 7.19706959707 , -111.704517705 , -4.08935546875 , 4.57763671875 , -0.54931640625 
2018/05/16 11:34:06.199907 , -0.01123046875 , 0.012451171875 , 1.01342773438 , 12.7448107448 , 7.19706959707 , -111.704517705 , -4.08935546875 , 4.57763671875 , -0.54931640625 
2018/05/16 11:34:06.492249 , -0.01123046875 , 0.012451171875 , 1.01342773438 , 12.7448107448 , 7.19706959707 , -111.704517705 , -4.08935546875 , 4.57763671875 , -0.54931640625 
2018/05/16 11:34:06.784681 , -0.01123046875 , 0.012451171875 , 1.01342773438 , 12.7448107448 , 7.19706959707 , -111.704517705 , -1.96075439453 , 4.36401367188 , -0.0457763671875 
2018/05/16 11:34:07.077325 , 0.00341796875 , 0.02294921875 , 1.02368164062 , 12.7448107448 , 7.19706959707 , -111.704517705 , -1.96075439453 , 4.36401367188 , -0.0457763671875 
2018/05/16 11:34:07.369783 , 0.00341796875 , 0.02294921875 , 1.02368164062 , 12.7448107448 , 7.19706959707 , -111.704517705 , -1.96075439453 , 4.36401367188 , -0.0457763671875 
2018/05/16 11:34:07.662310 , 0.00341796875 , 0.02294921875 , 1.02368164062 , 12.7448107448 , 7.19706959707 , -111.704517705 , -1.96075439453 , 4.36401367188 , -0.0457763671875 
2018/05/16 11:34:07.954680 , 0.029541015625 , 0.0224609375 , 1.00024414062 , 10.7956043956 , 5.84761904762 , -111.554578755 , -4.26483154297 , 3.79943847656 , 0.0762939453125 
2018/05/16 11:34:08.247288 , 0.029541015625 , 0.0224609375 , 1.00024414062 , 10.7956043956 , 5.84761904762 , -111.554578755 , -4.26483154297 , 3.79943847656 , 0.0762939453125 
2018/05/16 11:34:08.539710 , 0.029541015625 , 0.0224609375 , 1.00024414062 , 10.7956043956 , 5.84761904762 , -111.554578755 , -4.26483154297 , 3.79943847656 , 0.0762939453125 
2018/05/16 11:34:08.832311 , 0.029541015625 , 0.0224609375 , 1.00024414062 , 10.7956043956 , 5.84761904762 , -111.554578755 , -4.98962402344 , 4.07409667969 , -1.31225585938 
2018/05/16 11:34:09.124889 , 0.094482421875 , 0.067138671875 , 1.02905273438 , 11.6952380952 , 7.49694749695 , -112.454212454 , -4.98962402344 , 4.07409667969 , -1.31225585938 
2018/05/16 11:34:09.417307 , 0.094482421875 , 0.067138671875 , 1.02905273438 , 11.6952380952 , 7.49694749695 , -112.454212454 , -4.98962402344 , 4.07409667969 , -1.31225585938 
2018/05/16 11:34:09.709663 , 0.094482421875 , 0.067138671875 , 1.02905273438 , 11.6952380952 , 7.49694749695 , -112.454212454 , -4.98962402344 , 4.07409667969 , -1.31225585938 
2018/05/16 11:34:10.002155 , 0.0224609375 , 0.071533203125 , 0.985107421875 , 12.7448107448 , 5.3978021978 , -111.404639805 , -3.50952148438 , 4.92858886719 , 0.06103515625 
2018/05/16 11:34:10.294693 , 0.0224609375 , 0.071533203125 , 0.985107421875 , 12.7448107448 , 5.3978021978 , -111.404639805 , -3.50952148438 , 4.92858886719 , 0.06103515625 
2018/05/16 11:34:10.587147 , 0.0224609375 , 0.071533203125 , 0.985107421875 , 12.7448107448 , 5.3978021978 , -111.404639805 , -3.50952148438 , 4.92858886719 , 0.06103515625 
2018/05/16 11:34:10.879696 , 0.0224609375 , 0.071533203125 , 0.985107421875 , 10.7956043956 , 6.59731379731 , -110.804884005 , -2.79998779297 , 2.92205810547 , 0.450134277344 
2018/05/16 11:34:11.172372 , -0.015380859375 , 0.041015625 , 1.0224609375 , 10.7956043956 , 6.59731379731 , -110.804884005 , -2.79998779297 , 2.92205810547 , 0.450134277344 
2018/05/16 11:34:11.464703 , -0.015380859375 , 0.041015625 , 1.0224609375 , 10.7956043956 , 6.59731379731 , -110.804884005 , -2.79998779297 , 2.92205810547 , 0.450134277344 
2018/05/16 11:34:11.757147 , -0.015380859375 , 0.041015625 , 1.0224609375 , 10.7956043956 , 6.59731379731 , -110.804884005 , -3.50952148438 , 3.92150878906 , -0.579833984375 
2018/05/16 11:34:12.049870 , 0.039306640625 , -0.005859375 , 1.01611328125 , 13.3445665446 , 6.29743589744 , -111.254700855 , -3.50952148438 , 3.92150878906 , -0.579833984375 
2018/05/16 11:34:12.342192 , 0.039306640625 , -0.005859375 , 1.01611328125 , 13.3445665446 , 6.29743589744 , -111.254700855 , -3.50952148438 , 3.92150878906 , -0.579833984375 
2018/05/16 11:34:12.634672 , 0.039306640625 , -0.005859375 , 1.01611328125 , 13.3445665446 , 6.29743589744 , -111.254700855 , -3.50952148438 , 3.92150878906 , -0.579833984375 
2018/05/16 11:34:12.927163 , 0.039306640625 , -0.005859375 , 1.01611328125 , 13.3445665446 , 6.29743589744 , -111.554578755 , -5.43212890625 , 3.60870361328 , 0.762939453125 
2018/05/16 11:34:13.219755 , 0.016357421875 , 0.071044921875 , 1.04028320312 , 13.3445665446 , 6.29743589744 , -111.554578755 , -5.43212890625 , 3.60870361328 , 0.762939453125 
2018/05/16 11:34:13.512192 , 0.016357421875 , 0.071044921875 , 1.04028320312 , 13.3445665446 , 6.29743589744 , -111.554578755 , -5.43212890625 , 3.60870361328 , 0.762939453125 
2018/05/16 11:34:13.804714 , 0.016357421875 , 0.071044921875 , 1.04028320312 , 13.3445665446 , 6.29743589744 , -111.554578755 , -5.54656982422 , 5.13458251953 , 1.02233886719 
2018/05/16 11:34:14.097288 , -0.00927734375 , 0.004638671875 , 1.03442382812 , 11.6952380952 , 7.19706959707 , -110.055189255 , -5.54656982422 , 5.13458251953 , 1.02233886719 
2018/05/16 11:34:14.389853 , -0.00927734375 , 0.004638671875 , 1.03442382812 , 11.6952380952 , 7.19706959707 , -110.055189255 , -5.54656982422 , 5.13458251953 , 1.02233886719 
2018/05/16 11:34:14.682177 , -0.00927734375 , 0.004638671875 , 1.03442382812 , 11.6952380952 , 7.19706959707 , -110.055189255 , -5.54656982422 , 5.13458251953 , 1.02233886719 
2018/05/16 11:34:14.974690 , 0.08056640625 , 0.027099609375 , 0.997314453125 , 11.6952380952 , 6.44737484737 , -109.605372405 , -5.53894042969 , 5.126953125 , 0.808715820312 
2018/05/16 11:34:15.267257 , 0.08056640625 , 0.027099609375 , 0.997314453125 , 11.6952380952 , 6.44737484737 , -109.605372405 , -5.53894042969 , 5.126953125 , 0.808715820312 
2018/05/16 11:34:15.559791 , 0.08056640625 , 0.027099609375 , 0.997314453125 , 11.6952380952 , 6.44737484737 , -109.605372405 , -5.53894042969 , 5.126953125 , 0.808715820312 
2018/05/16 11:34:15.852412 , 0.08056640625 , 0.027099609375 , 0.997314453125 , 13.0446886447 , 6.1474969475 , -112.754090354 , -4.60815429688 , 4.11224365234 , -1.33514404297 
2018/05/16 11:34:16.144972 , -0.014892578125 , 0.019775390625 , 1.06860351562 , 13.0446886447 , 6.1474969475 , -112.754090354 , -4.60815429688 , 4.11224365234 , -1.33514404297 
2018/05/16 11:34:16.437517 , -0.014892578125 , 0.019775390625 , 1.06860351562 , 13.0446886447 , 6.1474969475 , -112.754090354 , -4.60815429688 , 4.11224365234 , -1.33514404297 
2018/05/16 11:34:16.730281 , -0.014892578125 , 0.019775390625 , 1.06860351562 , 13.0446886447 , 6.1474969475 , -112.754090354 , -4.60815429688 , 4.11224365234 , -1.33514404297 
2018/05/16 11:34:17.023058 , 0.04638671875 , 0.02099609375 , 1.07299804688 , 12.294993895 , 6.59731379731 , -109.455433455 , -3.49426269531 , 5.41687011719 , -0.282287597656 
2018/05/16 11:34:17.315735 , 0.04638671875 , 0.02099609375 , 1.07299804688 , 12.294993895 , 6.59731379731 , -109.455433455 , -3.49426269531 , 5.41687011719 , -0.282287597656 
2018/05/16 11:34:17.657228 , 0.04638671875 , 0.02099609375 , 1.07299804688 , 12.294993895 , 6.59731379731 , -109.455433455 , -3.49426269531 , 5.41687011719 , -0.282287597656 
2018/05/16 11:34:17.949955 , 0.05419921875 , 0.03271484375 , 1.03247070312 , 11.9951159951 , 7.49694749695 , -110.654945055 , -4.13513183594 , 5.11169433594 , -0.160217285156 
2018/05/16 11:34:18.242778 , 0.05419921875 , 0.03271484375 , 1.03247070312 , 11.9951159951 , 7.49694749695 , -110.654945055 , -4.13513183594 , 5.11169433594 , -0.160217285156 
2018/05/16 11:34:18.535376 , 0.05419921875 , 0.03271484375 , 1.03247070312 , 11.9951159951 , 7.49694749695 , -110.654945055 , -4.13513183594 , 5.11169433594 , -0.160217285156 
2018/05/16 11:34:18.828077 , 0.05419921875 , 0.03271484375 , 1.03247070312 , 11.9951159951 , 7.49694749695 , -110.654945055 , -3.63159179688 , 5.60760498047 , -0.0152587890625 
2018/05/16 11:34:19.120965 , 0.032958984375 , 0.03466796875 , 1.0419921875 , 12.8947496947 , 7.04713064713 , -112.154334554 , -3.63159179688 , 5.60760498047 , -0.0152587890625 
2018/05/16 11:34:19.413470 , 0.032958984375 , 0.03466796875 , 1.0419921875 , 12.8947496947 , 7.04713064713 , -112.154334554 , -3.63159179688 , 5.60760498047 , -0.0152587890625 
2018/05/16 11:34:19.706180 , 0.032958984375 , 0.03466796875 , 1.0419921875 , 12.8947496947 , 7.04713064713 , -112.154334554 , -3.63159179688 , 5.60760498047 , -0.0152587890625 
2018/05/16 11:34:19.998836 , 0.002685546875 , 0.0927734375 , 1.08325195312 , 12.294993895 , 7.64688644689 , -111.854456654 , -4.34875488281 , 4.87518310547 , -0.404357910156 
2018/05/16 11:34:20.291629 , 0.002685546875 , 0.0927734375 , 1.08325195312 , 12.294993895 , 7.64688644689 , -111.854456654 , -4.34875488281 , 4.87518310547 , -0.404357910156 
2018/05/16 11:34:20.584218 , 0.002685546875 , 0.0927734375 , 1.08325195312 , 12.294993895 , 7.64688644689 , -111.854456654 , -4.34875488281 , 4.87518310547 , -0.404357910156 
2018/05/16 11:34:20.876984 , 0.002685546875 , 0.0927734375 , 1.08325195312 , 12.5948717949 , 6.29743589744 , -111.554578755 , -3.60870361328 , 5.07354736328 , -0.465393066406 
2018/05/16 11:34:21.169760 , 0.00927734375 , 0.06396484375 , 1.00561523438 , 12.5948717949 , 6.29743589744 , -111.554578755 , -3.60870361328 , 5.07354736328 , -0.465393066406 
2018/05/16 11:34:21.462392 , 0.00927734375 , 0.06396484375 , 1.00561523438 , 12.5948717949 , 6.29743589744 , -111.554578755 , -3.60870361328 , 5.07354736328 , -0.465393066406 
2018/05/16 11:34:21.754910 , 0.00927734375 , 0.06396484375 , 1.00561523438 , 12.5948717949 , 6.29743589744 , -111.554578755 , -3.90625 , 4.16564941406 , 0.961303710938 
2018/05/16 11:34:22.047772 , -0.019775390625 , 0.017822265625 , 1.0048828125 , 12.8947496947 , 8.39658119658 , -110.804884005 , -3.90625 , 4.16564941406 , 0.961303710938 
2018/05/16 11:34:22.340240 , -0.019775390625 , 0.017822265625 , 1.0048828125 , 12.8947496947 , 8.39658119658 , -110.804884005 , -3.90625 , 4.16564941406 , 0.961303710938 
2018/05/16 11:34:22.633045 , -0.019775390625 , 0.017822265625 , 1.0048828125 , 12.8947496947 , 8.39658119658 , -110.804884005 , -3.90625 , 4.16564941406 , 0.961303710938 
2018/05/16 11:34:22.925564 , -0.019775390625 , 0.017822265625 , 1.0048828125 , 12.7448107448 , 6.44737484737 , -110.355067155 , -4.82177734375 , 4.75311279297 , 1.64794921875 
2018/05/16 11:34:23.218179 , -0.07958984375 , 0.0849609375 , 1.07592773438 , 12.7448107448 , 6.44737484737 , -110.355067155 , -4.82177734375 , 4.75311279297 , 1.64794921875 
2018/05/16 11:34:23.510838 , -0.07958984375 , 0.0849609375 , 1.07592773438 , 12.7448107448 , 6.44737484737 , -110.355067155 , -4.82177734375 , 4.75311279297 , 1.64794921875 
2018/05/16 11:34:23.803490 , -0.07958984375 , 0.0849609375 , 1.07592773438 , 12.7448107448 , 6.44737484737 , -110.355067155 , -3.60107421875 , 4.55474853516 , -0.450134277344 
2018/05/16 11:34:24.096307 , 0.062744140625 , 0.02783203125 , 1.00903320312 , 12.4449328449 , 7.49694749695 , -110.355067155 , -3.60107421875 , 4.55474853516 , -0.450134277344 
2018/05/16 11:34:24.388885 , 0.062744140625 , 0.02783203125 , 1.00903320312 , 12.4449328449 , 7.49694749695 , -110.355067155 , -3.60107421875 , 4.55474853516 , -0.450134277344 
2018/05/16 11:34:24.681409 , 0.062744140625 , 0.02783203125 , 1.00903320312 , 12.4449328449 , 7.49694749695 , -110.355067155 , -3.60107421875 , 4.55474853516 , -0.450134277344 
2018/05/16 11:34:24.974064 , 0.045166015625 , 0.026123046875 , 1.01196289062 , 10.7956043956 , 5.24786324786 , -112.154334554 , -3.02886962891 , 5.47027587891 , 1.21307373047 
2018/05/16 11:34:25.266860 , 0.045166015625 , 0.026123046875 , 1.01196289062 , 10.7956043956 , 5.24786324786 , -112.154334554 , -3.02886962891 , 5.47027587891 , 1.21307373047 
2018/05/16 11:34:25.559336 , 0.045166015625 , 0.026123046875 , 1.01196289062 , 10.7956043956 , 5.24786324786 , -112.154334554 , -3.02886962891 , 5.47027587891 , 1.21307373047 
2018/05/16 11:34:25.851942 , 0.045166015625 , 0.026123046875 , 1.01196289062 , 11.8451770452 , 7.34700854701 , -111.854456654 , -5.32531738281 , 4.86755371094 , -0.694274902344 
2018/05/16 11:34:26.144814 , -0.02734375 , 0.02783203125 , 1.05639648438 , 11.8451770452 , 7.34700854701 , -111.854456654 , -5.32531738281 , 4.86755371094 , -0.694274902344 
2018/05/16 11:34:26.437352 , -0.02734375 , 0.02783203125 , 1.05639648438 , 11.8451770452 , 7.34700854701 , -111.854456654 , -5.32531738281 , 4.86755371094 , -0.694274902344 
2018/05/16 11:34:26.729911 , -0.02734375 , 0.02783203125 , 1.05639648438 , 11.8451770452 , 7.34700854701 , -111.854456654 , -5.32531738281 , 4.86755371094 , -0.694274902344 
2018/05/16 11:34:27.022525 , 0.017333984375 , 0.0205078125 , 1.00732421875 , 12.5948717949 , 7.04713064713 , -110.505006105 , -4.21142578125 , 3.20434570312 , -0.06103515625 
2018/05/16 11:34:27.315132 , 0.017333984375 , 0.0205078125 , 1.00732421875 , 12.5948717949 , 7.04713064713 , -110.505006105 , -4.21142578125 , 3.20434570312 , -0.06103515625 
2018/05/16 11:34:27.607717 , 0.017333984375 , 0.0205078125 , 1.00732421875 , 12.5948717949 , 7.04713064713 , -110.505006105 , -4.21142578125 , 3.20434570312 , -0.06103515625 
2018/05/16 11:34:27.900348 , 0.017333984375 , 0.0205078125 , 1.00732421875 , 13.7943833944 , 5.3978021978 , -110.654945055 , -4.55474853516 , 5.43975830078 , -0.67138671875 
2018/05/16 11:34:28.193118 , -0.02001953125 , -0.00634765625 , 1.05908203125 , 13.7943833944 , 5.3978021978 , -110.654945055 , -4.55474853516 , 5.43975830078 , -0.67138671875 
2018/05/16 11:34:28.485512 , -0.02001953125 , -0.00634765625 , 1.05908203125 , 13.7943833944 , 5.3978021978 , -110.654945055 , -4.55474853516 , 5.43975830078 , -0.67138671875 
2018/05/16 11:34:28.778156 , -0.02001953125 , -0.00634765625 , 1.05908203125 , 13.7943833944 , 5.3978021978 , -110.654945055 , -3.73840332031 , 3.19671630859 , -0.717163085938 
2018/05/16 11:34:29.070729 , -0.033447265625 , 0.04248046875 , 1.025390625 , 12.5948717949 , 7.04713064713 , -109.455433455 , -3.73840332031 , 3.19671630859 , -0.717163085938 
2018/05/16 11:34:29.363543 , -0.033447265625 , 0.04248046875 , 1.025390625 , 12.5948717949 , 7.04713064713 , -109.455433455 , -3.73840332031 , 3.19671630859 , -0.717163085938 
2018/05/16 11:34:29.655960 , -0.033447265625 , 0.04248046875 , 1.025390625 , 12.5948717949 , 7.04713064713 , -109.455433455 , -3.73840332031 , 3.19671630859 , -0.717163085938 
2018/05/16 11:34:29.948598 , 0.04931640625 , -0.031982421875 , 1.00805664062 , 13.9443223443 , 7.04713064713 , -111.254700855 , -6.05773925781 , 4.22668457031 , -1.77764892578 
2018/05/16 11:34:30.241202 , 0.04931640625 , -0.031982421875 , 1.00805664062 , 13.9443223443 , 7.04713064713 , -111.254700855 , -6.05773925781 , 4.22668457031 , -1.77764892578 
2018/05/16 11:34:30.533733 , 0.04931640625 , -0.031982421875 , 1.00805664062 , 13.9443223443 , 7.04713064713 , -111.254700855 , -6.05773925781 , 4.22668457031 , -1.77764892578 
2018/05/16 11:34:30.826321 , 0.04931640625 , -0.031982421875 , 1.00805664062 , 13.9443223443 , 7.04713064713 , -111.254700855 , -3.41796875 , 6.17218017578 , 0.350952148438 
2018/05/16 11:34:31.118976 , 0.00439453125 , 0.04638671875 , 1.04931640625 , 12.4449328449 , 6.74725274725 , -111.704517705 , -3.41796875 , 6.17218017578 , 0.350952148438 
2018/05/16 11:34:31.411555 , 0.00439453125 , 0.04638671875 , 1.04931640625 , 12.4449328449 , 6.74725274725 , -111.704517705 , -3.41796875 , 6.17218017578 , 0.350952148438 
2018/05/16 11:34:31.704121 , 0.00439453125 , 0.04638671875 , 1.04931640625 , 12.4449328449 , 6.74725274725 , -111.704517705 , -3.41796875 , 6.17218017578 , 0.350952148438 
2018/05/16 11:34:31.996686 , -0.047119140625 , 0.107177734375 , 1.02758789062 , 11.9951159951 , 5.3978021978 , -110.355067155 , -4.79888916016 , 3.57055664062 , 0.595092773438 
2018/05/16 11:34:32.289410 , -0.047119140625 , 0.107177734375 , 1.02758789062 , 11.9951159951 , 5.3978021978 , -110.355067155 , -4.79888916016 , 3.57055664062 , 0.595092773438 
2018/05/16 11:34:32.581892 , -0.047119140625 , 0.107177734375 , 1.02758789062 , 11.9951159951 , 5.3978021978 , -110.355067155 , -4.79888916016 , 3.57055664062 , 0.595092773438 
2018/05/16 11:34:32.874572 , -0.047119140625 , 0.107177734375 , 1.02758789062 , 12.7448107448 , 6.74725274725 , -111.104761905 , -5.23376464844 , 5.63049316406 , -0.457763671875 
2018/05/16 11:34:33.167185 , -0.01953125 , 0.017822265625 , 1.0947265625 , 12.7448107448 , 6.74725274725 , -111.104761905 , -5.23376464844 , 5.63049316406 , -0.457763671875 
2018/05/16 11:34:33.459709 , -0.01953125 , 0.017822265625 , 1.0947265625 , 12.7448107448 , 6.74725274725 , -111.104761905 , -5.23376464844 , 5.63049316406 , -0.457763671875 
2018/05/16 11:34:33.752179 , -0.01953125 , 0.017822265625 , 1.0947265625 , 12.7448107448 , 6.74725274725 , -111.104761905 , -3.22723388672 , 3.67736816406 , -0.907897949219 
2018/05/16 11:34:34.044749 , -0.05908203125 , -0.001708984375 , 1.04833984375 , 11.8451770452 , 5.84761904762 , -111.554578755 , -3.22723388672 , 3.67736816406 , -0.907897949219 
2018/05/16 11:34:34.337390 , -0.05908203125 , -0.001708984375 , 1.04833984375 , 11.8451770452 , 5.84761904762 , -111.554578755 , -3.22723388672 , 3.67736816406 , -0.907897949219 
2018/05/16 11:34:34.629918 , -0.05908203125 , -0.001708984375 , 1.04833984375 , 11.8451770452 , 5.84761904762 , -111.554578755 , -3.22723388672 , 3.67736816406 , -0.907897949219 
2018/05/16 11:34:34.922527 , -0.05908203125 , -0.001708984375 , 1.04833984375 , 11.2454212454 , 8.0967032967 , -111.554578755 , -4.28771972656 , 4.75311279297 , -0.350952148438 
2018/05/16 11:34:35.215252 , -0.029541015625 , -0.0048828125 , 1.06201171875 , 11.2454212454 , 8.0967032967 , -111.554578755 , -4.28771972656 , 4.75311279297 , -0.350952148438 
2018/05/16 11:34:35.507629 , -0.029541015625 , -0.0048828125 , 1.06201171875 , 11.2454212454 , 8.0967032967 , -111.554578755 , -4.28771972656 , 4.75311279297 , -0.350952148438 
2018/05/16 11:34:35.800221 , -0.029541015625 , -0.0048828125 , 1.06201171875 , 11.2454212454 , 8.0967032967 , -111.554578755 , -5.67626953125 , 4.29534912109 , -0.30517578125 
2018/05/16 11:34:36.093007 , -0.01123046875 , -0.03564453125 , 1.03979492188 , 14.0942612943 , 5.3978021978 , -110.654945055 , -5.67626953125 , 4.29534912109 , -0.30517578125 
2018/05/16 11:34:36.385515 , -0.01123046875 , -0.03564453125 , 1.03979492188 , 14.0942612943 , 5.3978021978 , -110.654945055 , -5.67626953125 , 4.29534912109 , -0.30517578125 
2018/05/16 11:34:36.677970 , -0.01123046875 , -0.03564453125 , 1.03979492188 , 14.0942612943 , 5.3978021978 , -110.654945055 , -5.67626953125 , 4.29534912109 , -0.30517578125 
2018/05/16 11:34:37.019334 , 0.016357421875 , 0.041015625 , 1.02734375 , 14.0942612943 , 5.3978021978 , -110.654945055 , -3.95965576172 , 4.41741943359 , -0.961303710938 
2018/05/16 11:34:37.311900 , 0.016357421875 , 0.041015625 , 1.02734375 , 14.0942612943 , 5.3978021978 , -110.654945055 , -3.95965576172 , 4.41741943359 , -0.961303710938 
2018/05/16 11:34:37.604356 , 0.016357421875 , 0.041015625 , 1.02734375 , 14.0942612943 , 5.3978021978 , -110.654945055 , -3.95965576172 , 4.41741943359 , -0.961303710938 
2018/05/16 11:34:37.896912 , 0.016357421875 , 0.041015625 , 1.02734375 , 11.5452991453 , 6.59731379731 , -111.854456654 , -3.81469726562 , 4.40979003906 , -0.0228881835938 
2018/05/16 11:34:38.189613 , 0.0029296875 , 0.019287109375 , 1.0380859375 , 11.5452991453 , 6.59731379731 , -111.854456654 , -3.81469726562 , 4.40979003906 , -0.0228881835938 
2018/05/16 11:34:38.482192 , 0.0029296875 , 0.019287109375 , 1.0380859375 , 11.5452991453 , 6.59731379731 , -111.854456654 , -3.81469726562 , 4.40979003906 , -0.0228881835938 
2018/05/16 11:34:38.774556 , 0.0029296875 , 0.019287109375 , 1.0380859375 , 11.5452991453 , 6.59731379731 , -111.854456654 , -5.22613525391 , 5.50079345703 , -0.556945800781 
2018/05/16 11:34:39.067234 , 0.011962890625 , 0.029296875 , 1.00048828125 , 11.5452991453 , 6.59731379731 , -111.854456654 , -5.22613525391 , 5.50079345703 , -0.556945800781 
2018/05/16 11:34:39.359663 , 0.011962890625 , 0.029296875 , 1.00048828125 , 11.5452991453 , 6.59731379731 , -111.854456654 , -5.22613525391 , 5.50079345703 , -0.556945800781 
2018/05/16 11:34:39.652245 , 0.011962890625 , 0.029296875 , 1.00048828125 , 11.5452991453 , 6.59731379731 , -111.854456654 , -5.22613525391 , 5.50079345703 , -0.556945800781 
2018/05/16 11:34:39.944761 , 0.03125 , 0.03271484375 , 1.04052734375 , 12.294993895 , 5.84761904762 , -109.455433455 , -5.34057617188 , 4.87518310547 , 0.198364257812 
2018/05/16 11:34:40.237542 , 0.03125 , 0.03271484375 , 1.04052734375 , 12.294993895 , 5.84761904762 , -109.455433455 , -5.34057617188 , 4.87518310547 , 0.198364257812 
2018/05/16 11:34:40.529926 , 0.03125 , 0.03271484375 , 1.04052734375 , 12.294993895 , 5.84761904762 , -109.455433455 , -5.34057617188 , 4.87518310547 , 0.198364257812 
2018/05/16 11:34:40.822453 , 0.03125 , 0.03271484375 , 1.04052734375 , 12.294993895 , 5.84761904762 , -109.455433455 , -2.63214111328 , 4.20379638672 , -1.29699707031 
2018/05/16 11:34:41.115027 , 0.006103515625 , 0.06689453125 , 1.0263671875 , 12.294993895 , 5.84761904762 , -109.455433455 , -2.63214111328 , 4.20379638672 , -1.29699707031 
2018/05/16 11:34:41.407634 , 0.006103515625 , 0.06689453125 , 1.0263671875 , 12.294993895 , 5.84761904762 , -109.455433455 , -2.63214111328 , 4.20379638672 , -1.29699707031 
2018/05/16 11:34:41.700099 , 0.006103515625 , 0.06689453125 , 1.0263671875 , 12.294993895 , 5.84761904762 , -109.455433455 , -2.63214111328 , 4.20379638672 , -1.29699707031 
2018/05/16 11:34:41.992701 , 0.025634765625 , 0.002685546875 , 1.02587890625 , 12.4449328449 , 8.24664224664 , -112.004395604 , -3.21197509766 , 5.38635253906 , 1.12915039062 
2018/05/16 11:34:42.285252 , 0.025634765625 , 0.002685546875 , 1.02587890625 , 12.4449328449 , 8.24664224664 , -112.004395604 , -3.21197509766 , 5.38635253906 , 1.12915039062 
2018/05/16 11:34:42.577782 , 0.025634765625 , 0.002685546875 , 1.02587890625 , 12.4449328449 , 8.24664224664 , -112.004395604 , -3.21197509766 , 5.38635253906 , 1.12915039062 
2018/05/16 11:34:42.870284 , 0.025634765625 , 0.002685546875 , 1.02587890625 , 12.4449328449 , 8.24664224664 , -112.004395604 , -4.02069091797 , 4.57763671875 , 1.66320800781 
2018/05/16 11:34:43.163097 , -0.018310546875 , 0.04443359375 , 1.02490234375 , 12.4449328449 , 8.24664224664 , -112.004395604 , -4.02069091797 , 4.57763671875 , 1.66320800781 
2018/05/16 11:34:43.455328 , -0.018310546875 , 0.04443359375 , 1.02490234375 , 12.4449328449 , 8.24664224664 , -112.004395604 , -4.02069091797 , 4.57763671875 , 1.66320800781 
2018/05/16 11:34:43.747923 , -0.018310546875 , 0.04443359375 , 1.02490234375 , 12.4449328449 , 8.24664224664 , -112.004395604 , -4.02069091797 , 4.57763671875 , 1.66320800781 
2018/05/16 11:34:44.040415 , 0.043212890625 , 0.0791015625 , 1.03955078125 , 12.4449328449 , 8.24664224664 , -112.004395604 , -3.52478027344 , 4.78363037109 , 1.24359130859 
2018/05/16 11:34:44.333064 , 0.043212890625 , 0.0791015625 , 1.03955078125 , 12.4449328449 , 8.24664224664 , -112.004395604 , -3.52478027344 , 4.78363037109 , 1.24359130859 
2018/05/16 11:34:44.625499 , 0.043212890625 , 0.0791015625 , 1.03955078125 , 12.4449328449 , 8.24664224664 , -112.004395604 , -3.52478027344 , 4.78363037109 , 1.24359130859 
2018/05/16 11:34:44.918086 , 0.043212890625 , 0.0791015625 , 1.03955078125 , 10.9455433455 , 5.69768009768 , -111.104761905 , -3.73077392578 , 5.80596923828 , -0.442504882812 
2018/05/16 11:34:45.210774 , 0.0458984375 , -0.008544921875 , 0.9951171875 , 10.9455433455 , 5.69768009768 , -111.104761905 , -3.73077392578 , 5.80596923828 , -0.442504882812 
2018/05/16 11:34:45.503204 , 0.0458984375 , -0.008544921875 , 0.9951171875 , 10.9455433455 , 5.69768009768 , -111.104761905 , -3.73077392578 , 5.80596923828 , -0.442504882812 
2018/05/16 11:34:45.795733 , 0.0458984375 , -0.008544921875 , 0.9951171875 , 10.9455433455 , 5.69768009768 , -111.104761905 , -4.21142578125 , 5.05828857422 , -0.556945800781 
2018/05/16 11:34:46.088461 , 0.02978515625 , -0.037353515625 , 1.01440429688 , 13.3445665446 , 7.04713064713 , -110.205128205 , -4.21142578125 , 5.05828857422 , -0.556945800781 
2018/05/16 11:34:46.380771 , 0.02978515625 , -0.037353515625 , 1.01440429688 , 13.3445665446 , 7.04713064713 , -110.205128205 , -4.21142578125 , 5.05828857422 , -0.556945800781 
2018/05/16 11:34:46.673436 , 0.02978515625 , -0.037353515625 , 1.01440429688 , 13.3445665446 , 7.04713064713 , -110.205128205 , -4.21142578125 , 5.05828857422 , -0.556945800781 
2018/05/16 11:34:46.965832 , -0.037353515625 , -0.043212890625 , 1.03198242188 , 13.3445665446 , 7.04713064713 , -110.205128205 , -4.150390625 , 5.30242919922 , 0.968933105469 
2018/05/16 11:34:47.258356 , -0.037353515625 , -0.043212890625 , 1.03198242188 , 13.3445665446 , 7.04713064713 , -110.205128205 , -4.150390625 , 5.30242919922 , 0.968933105469 
2018/05/16 11:34:47.550906 , -0.037353515625 , -0.043212890625 , 1.03198242188 , 13.3445665446 , 7.04713064713 , -110.205128205 , -4.150390625 , 5.30242919922 , 0.968933105469 
2018/05/16 11:34:47.892172 , -0.037353515625 , -0.043212890625 , 1.03198242188 , 13.3445665446 , 7.04713064713 , -110.205128205 , -5.11169433594 , 4.64630126953 , -2.74658203125 
2018/05/16 11:34:48.233588 , -0.00341796875 , 0.052490234375 , 1.02880859375 , 13.3445665446 , 7.04713064713 , -110.205128205 , -5.11169433594 , 4.64630126953 , -2.74658203125 
2018/05/16 11:34:48.526013 , -0.00341796875 , 0.052490234375 , 1.02880859375 , 13.3445665446 , 7.04713064713 , -110.205128205 , -5.11169433594 , 4.64630126953 , -2.74658203125 
2018/05/16 11:34:48.818552 , -0.00341796875 , 0.052490234375 , 1.02880859375 , 13.3445665446 , 7.04713064713 , -110.205128205 , -4.66918945312 , 5.63049316406 , 0.701904296875 
2018/05/16 11:34:49.111118 , 0.0107421875 , 0.026611328125 , 1.02587890625 , 11.3953601954 , 6.44737484737 , -111.704517705 , -4.66918945312 , 5.63049316406 , 0.701904296875 
2018/05/16 11:34:49.403659 , 0.0107421875 , 0.026611328125 , 1.02587890625 , 11.3953601954 , 6.44737484737 , -111.704517705 , -4.66918945312 , 5.63049316406 , 0.701904296875 
2018/05/16 11:34:49.696172 , 0.0107421875 , 0.026611328125 , 1.02587890625 , 11.3953601954 , 6.44737484737 , -111.704517705 , -4.66918945312 , 5.63049316406 , 0.701904296875 
2018/05/16 11:34:49.988677 , -0.014404296875 , -0.028564453125 , 1.08544921875 , 13.0446886447 , 7.19706959707 , -111.704517705 , -4.83703613281 , 4.66918945312 , 0.450134277344 
2018/05/16 11:34:50.281298 , -0.014404296875 , -0.028564453125 , 1.08544921875 , 13.0446886447 , 7.19706959707 , -111.704517705 , -4.83703613281 , 4.66918945312 , 0.450134277344 
2018/05/16 11:34:50.573832 , -0.014404296875 , -0.028564453125 , 1.08544921875 , 13.0446886447 , 7.19706959707 , -111.704517705 , -4.83703613281 , 4.66918945312 , 0.450134277344 
2018/05/16 11:34:50.866332 , -0.014404296875 , -0.028564453125 , 1.08544921875 , 12.8947496947 , 7.04713064713 , -111.254700855 , -3.32641601562 , 2.65502929688 , -0.67138671875 
2018/05/16 11:34:51.158940 , -0.022705078125 , 0.009033203125 , 1.00732421875 , 12.8947496947 , 7.04713064713 , -111.254700855 , -3.32641601562 , 2.65502929688 , -0.67138671875 
2018/05/16 11:34:51.451421 , -0.022705078125 , 0.009033203125 , 1.00732421875 , 12.8947496947 , 7.04713064713 , -111.254700855 , -3.32641601562 , 2.65502929688 , -0.67138671875 
2018/05/16 11:34:51.743799 , -0.022705078125 , 0.009033203125 , 1.00732421875 , 12.8947496947 , 7.04713064713 , -111.254700855 , -4.53948974609 , 4.5166015625 , 0.434875488281 
2018/05/16 11:34:52.085283 , 0.01123046875 , -0.01904296875 , 1.06372070312 , 11.8451770452 , 9.44615384615 , -110.205128205 , -4.53948974609 , 4.5166015625 , 0.434875488281 
2018/05/16 11:34:52.377651 , 0.01123046875 , -0.01904296875 , 1.06372070312 , 11.8451770452 , 9.44615384615 , -110.205128205 , -4.53948974609 , 4.5166015625 , 0.434875488281 
2018/05/16 11:34:52.670201 , 0.01123046875 , -0.01904296875 , 1.06372070312 , 11.8451770452 , 9.44615384615 , -110.205128205 , -4.53948974609 , 4.5166015625 , 0.434875488281 
2018/05/16 11:34:52.962747 , 0.062255859375 , 0.109619140625 , 1.01318359375 , 13.6444444444 , 8.69645909646 , -112.154334554 , -5.39398193359 , 4.24957275391 , -2.10571289062 
2018/05/16 11:34:53.255343 , 0.062255859375 , 0.109619140625 , 1.01318359375 , 13.6444444444 , 8.69645909646 , -112.154334554 , -5.39398193359 , 4.24957275391 , -2.10571289062 
2018/05/16 11:34:53.547706 , 0.062255859375 , 0.109619140625 , 1.01318359375 , 13.6444444444 , 8.69645909646 , -112.154334554 , -5.39398193359 , 4.24957275391 , -2.10571289062 
2018/05/16 11:34:53.840223 , 0.062255859375 , 0.109619140625 , 1.01318359375 , 13.6444444444 , 8.69645909646 , -112.154334554 , -3.13568115234 , 4.79125976562 , -0.114440917969 
2018/05/16 11:34:54.133016 , -0.047607421875 , 0.0703125 , 1.02319335938 , 14.3941391941 , 7.34700854701 , -111.854456654 , -3.13568115234 , 4.79125976562 , -0.114440917969 
2018/05/16 11:34:54.425355 , -0.047607421875 , 0.0703125 , 1.02319335938 , 14.3941391941 , 7.34700854701 , -111.854456654 , -3.13568115234 , 4.79125976562 , -0.114440917969 
2018/05/16 11:34:54.717805 , -0.047607421875 , 0.0703125 , 1.02319335938 , 14.3941391941 , 7.34700854701 , -111.854456654 , -3.13568115234 , 4.79125976562 , -0.114440917969 
2018/05/16 11:34:55.010311 , 0.03466796875 , 0.02099609375 , 1.01831054688 , 12.4449328449 , 7.79682539683 , -110.355067155 , -4.40216064453 , 4.66918945312 , -0.762939453125 
2018/05/16 11:34:55.303148 , 0.03466796875 , 0.02099609375 , 1.01831054688 , 12.4449328449 , 7.79682539683 , -110.355067155 , -4.40216064453 , 4.66918945312 , -0.762939453125 
2018/05/16 11:34:55.595531 , 0.03466796875 , 0.02099609375 , 1.01831054688 , 12.4449328449 , 7.79682539683 , -110.355067155 , -4.40216064453 , 4.66918945312 , -0.762939453125 
2018/05/16 11:34:55.887976 , 0.03466796875 , 0.02099609375 , 1.01831054688 , 11.9951159951 , 5.69768009768 , -110.055189255 , -4.70733642578 , 5.30242919922 , 0.404357910156 
2018/05/16 11:34:56.180542 , -0.034912109375 , 0.046142578125 , 1.056640625 , 11.9951159951 , 5.69768009768 , -110.055189255 , -4.70733642578 , 5.30242919922 , 0.404357910156 
2018/05/16 11:34:56.473132 , -0.034912109375 , 0.046142578125 , 1.056640625 , 11.9951159951 , 5.69768009768 , -110.055189255 , -4.70733642578 , 5.30242919922 , 0.404357910156 
2018/05/16 11:34:56.765482 , -0.034912109375 , 0.046142578125 , 1.056640625 , 11.9951159951 , 5.69768009768 , -110.055189255 , -3.95965576172 , 3.91387939453 , -0.823974609375 
2018/05/16 11:34:57.058110 , -0.010009765625 , 0.05810546875 , 1.02514648438 , 10.9455433455 , 5.09792429792 , -111.704517705 , -3.95965576172 , 3.91387939453 , -0.823974609375 
2018/05/16 11:34:57.350543 , -0.010009765625 , 0.05810546875 , 1.02514648438 , 10.9455433455 , 5.09792429792 , -111.704517705 , -3.95965576172 , 3.91387939453 , -0.823974609375 
2018/05/16 11:34:57.642998 , -0.010009765625 , 0.05810546875 , 1.02514648438 , 10.9455433455 , 5.09792429792 , -111.704517705 , -3.95965576172 , 3.91387939453 , -0.823974609375 
2018/05/16 11:34:57.935861 , -0.010009765625 , 0.05810546875 , 1.02514648438 , 12.4449328449 , 6.1474969475 , -110.355067155 , -5.74493408203 , 6.103515625 , -0.030517578125 
2018/05/16 11:34:58.228397 , 0.0419921875 , 0.062255859375 , 1.00708007812 , 12.4449328449 , 6.1474969475 , -110.355067155 , -5.74493408203 , 6.103515625 , -0.030517578125 
2018/05/16 11:34:58.520559 , 0.0419921875 , 0.062255859375 , 1.00708007812 , 12.4449328449 , 6.1474969475 , -110.355067155 , -5.74493408203 , 6.103515625 , -0.030517578125 
2018/05/16 11:34:58.813087 , 0.0419921875 , 0.062255859375 , 1.00708007812 , 12.4449328449 , 6.1474969475 , -110.355067155 , -2.70843505859 , 5.34820556641 , -2.41851806641 
2018/05/16 11:34:59.105626 , 0.0458984375 , 0.039794921875 , 0.9697265625 , 11.2454212454 , 8.0967032967 , -111.554578755 , -2.70843505859 , 5.34820556641 , -2.41851806641 
2018/05/16 11:34:59.446858 , 0.0458984375 , 0.039794921875 , 0.9697265625 , 11.2454212454 , 8.0967032967 , -111.554578755 , -2.70843505859 , 5.34820556641 , -2.41851806641 
2018/05/16 11:34:59.739363 , 0.0458984375 , 0.039794921875 , 0.9697265625 , 11.2454212454 , 8.0967032967 , -111.554578755 , -2.70843505859 , 5.34820556641 , -2.41851806641 
2018/05/16 11:35:00.031886 , 0.004638671875 , -0.0107421875 , 1.03588867188 , 13.0446886447 , 6.74725274725 , -111.104761905 , -5.18035888672 , 4.91333007812 , 1.22833251953 
2018/05/16 11:35:00.324443 , 0.004638671875 , -0.0107421875 , 1.03588867188 , 13.0446886447 , 6.74725274725 , -111.104761905 , -5.18035888672 , 4.91333007812 , 1.22833251953 
2018/05/16 11:35:00.616935 , 0.004638671875 , -0.0107421875 , 1.03588867188 , 13.0446886447 , 6.74725274725 , -111.104761905 , -5.18035888672 , 4.91333007812 , 1.22833251953 
2018/05/16 11:35:00.909430 , 0.004638671875 , -0.0107421875 , 1.03588867188 , 12.5948717949 , 7.34700854701 , -110.205128205 , -4.90570068359 , 5.54656982422 , 0.167846679688 
2018/05/16 11:35:01.202123 , 0.06396484375 , 0.026123046875 , 0.990478515625 , 12.5948717949 , 7.34700854701 , -110.205128205 , -4.90570068359 , 5.54656982422 , 0.167846679688 
2018/05/16 11:35:01.494534 , 0.06396484375 , 0.026123046875 , 0.990478515625 , 12.5948717949 , 7.34700854701 , -110.205128205 , -4.90570068359 , 5.54656982422 , 0.167846679688 
2018/05/16 11:35:01.787094 , 0.06396484375 , 0.026123046875 , 0.990478515625 , 12.5948717949 , 7.34700854701 , -110.205128205 , -2.87628173828 , 1.80053710938 , -0.198364257812 
2018/05/16 11:35:02.079748 , 0.00732421875 , 0.03369140625 , 1.03784179688 , 11.9951159951 , 6.74725274725 , -112.454212454 , -2.87628173828 , 1.80053710938 , -0.198364257812 
2018/05/16 11:35:02.372197 , 0.00732421875 , 0.03369140625 , 1.03784179688 , 11.9951159951 , 6.74725274725 , -112.454212454 , -2.87628173828 , 1.80053710938 , -0.198364257812 
2018/05/16 11:35:02.664547 , 0.00732421875 , 0.03369140625 , 1.03784179688 , 11.9951159951 , 6.74725274725 , -112.454212454 , -2.87628173828 , 1.80053710938 , -0.198364257812 
2018/05/16 11:35:02.957121 , 0.0302734375 , 0.066650390625 , 0.980224609375 , 11.2454212454 , 7.04713064713 , -110.804884005 , -4.93621826172 , 4.24194335938 , -0.0457763671875 
2018/05/16 11:35:03.249621 , 0.0302734375 , 0.066650390625 , 0.980224609375 , 11.2454212454 , 7.04713064713 , -110.804884005 , -4.93621826172 , 4.24194335938 , -0.0457763671875 
2018/05/16 11:35:03.542099 , 0.0302734375 , 0.066650390625 , 0.980224609375 , 11.2454212454 , 7.04713064713 , -110.804884005 , -4.93621826172 , 4.24194335938 , -0.0457763671875 
2018/05/16 11:35:03.834578 , 0.0302734375 , 0.066650390625 , 0.980224609375 , 11.2454212454 , 7.04713064713 , -110.804884005 , -3.58581542969 , 2.90679931641 , 1.00708007812 
2018/05/16 11:35:04.127116 , 0.041748046875 , 0.028564453125 , 1.0927734375 , 13.0446886447 , 5.69768009768 , -110.055189255 , -3.58581542969 , 2.90679931641 , 1.00708007812 
2018/05/16 11:35:04.419668 , 0.041748046875 , 0.028564453125 , 1.0927734375 , 13.0446886447 , 5.69768009768 , -110.055189255 , -3.58581542969 , 2.90679931641 , 1.00708007812 
2018/05/16 11:35:04.712167 , 0.041748046875 , 0.028564453125 , 1.0927734375 , 13.0446886447 , 5.69768009768 , -110.055189255 , -3.58581542969 , 2.90679931641 , 1.00708007812 
2018/05/16 11:35:05.004689 , 0.000732421875 , 0.0546875 , 1.04809570312 , 10.9455433455 , 6.1474969475 , -110.654945055 , -3.73077392578 , 4.11224365234 , 0.213623046875 
2018/05/16 11:35:05.297219 , 0.000732421875 , 0.0546875 , 1.04809570312 , 10.9455433455 , 6.1474969475 , -110.654945055 , -3.73077392578 , 4.11224365234 , 0.213623046875 
2018/05/16 11:35:05.589674 , 0.000732421875 , 0.0546875 , 1.04809570312 , 10.9455433455 , 6.1474969475 , -110.654945055 , -3.73077392578 , 4.11224365234 , 0.213623046875 
2018/05/16 11:35:05.882327 , 0.000732421875 , 0.0546875 , 1.04809570312 , 12.5948717949 , 7.34700854701 , -111.854456654 , -3.39508056641 , 4.82177734375 , 0.205993652344 
2018/05/16 11:35:06.174903 , 0.006591796875 , 0.03857421875 , 1.06030273438 , 12.5948717949 , 7.34700854701 , -111.854456654 , -3.39508056641 , 4.82177734375 , 0.205993652344 
2018/05/16 11:35:06.467334 , 0.006591796875 , 0.03857421875 , 1.06030273438 , 12.5948717949 , 7.34700854701 , -111.854456654 , -3.39508056641 , 4.82177734375 , 0.205993652344 
2018/05/16 11:35:06.759694 , 0.006591796875 , 0.03857421875 , 1.06030273438 , 12.5948717949 , 7.34700854701 , -111.854456654 , -3.86047363281 , 4.28771972656 , -0.579833984375 
2018/05/16 11:35:07.052397 , -0.017578125 , 0.030029296875 , 1.06494140625 , 11.3953601954 , 6.1474969475 , -111.404639805 , -3.86047363281 , 4.28771972656 , -0.579833984375 
2018/05/16 11:35:07.344734 , -0.017578125 , 0.030029296875 , 1.06494140625 , 11.3953601954 , 6.1474969475 , -111.404639805 , -3.86047363281 , 4.28771972656 , -0.579833984375 
2018/05/16 11:35:07.637251 , -0.017578125 , 0.030029296875 , 1.06494140625 , 11.3953601954 , 6.1474969475 , -111.404639805 , -3.86047363281 , 4.28771972656 , -0.579833984375 
2018/05/16 11:35:07.929768 , -0.017578125 , 0.030029296875 , 1.06494140625 , 12.4449328449 , 6.74725274725 , -110.355067155 , -4.69207763672 , 5.17272949219 , 0.0152587890625 
2018/05/16 11:35:08.222514 , 0.04736328125 , 0.024658203125 , 1.02416992188 , 12.4449328449 , 6.74725274725 , -110.355067155 , -4.69207763672 , 5.17272949219 , 0.0152587890625 
2018/05/16 11:35:08.514826 , 0.04736328125 , 0.024658203125 , 1.02416992188 , 12.4449328449 , 6.74725274725 , -110.355067155 , -4.69207763672 , 5.17272949219 , 0.0152587890625 
2018/05/16 11:35:08.807403 , 0.04736328125 , 0.024658203125 , 1.02416992188 , 12.4449328449 , 6.74725274725 , -110.355067155 , -4.01306152344 , 4.40216064453 , 0.419616699219 
2018/05/16 11:35:09.099972 , 0.05322265625 , 0.01708984375 , 0.989990234375 , 13.3445665446 , 7.64688644689 , -111.854456654 , -4.01306152344 , 4.40216064453 , 0.419616699219 
2018/05/16 11:35:09.392355 , 0.05322265625 , 0.01708984375 , 0.989990234375 , 13.3445665446 , 7.64688644689 , -111.854456654 , -4.01306152344 , 4.40216064453 , 0.419616699219 
2018/05/16 11:35:09.684856 , 0.05322265625 , 0.01708984375 , 0.989990234375 , 13.3445665446 , 7.64688644689 , -111.854456654 , -4.01306152344 , 4.40216064453 , 0.419616699219 
2018/05/16 11:35:09.977296 , 0.00830078125 , 0.03076171875 , 1.04223632812 , 12.7448107448 , 7.79682539683 , -112.004395604 , -3.63922119141 , 3.63159179688 , -0.114440917969 
2018/05/16 11:35:10.270125 , 0.00830078125 , 0.03076171875 , 1.04223632812 , 12.7448107448 , 7.79682539683 , -112.004395604 , -3.63922119141 , 3.63159179688 , -0.114440917969 
2018/05/16 11:35:10.562344 , 0.00830078125 , 0.03076171875 , 1.04223632812 , 12.7448107448 , 7.79682539683 , -112.004395604 , -3.63922119141 , 3.63159179688 , -0.114440917969 
2018/05/16 11:35:10.854863 , 0.00830078125 , 0.03076171875 , 1.04223632812 , 12.294993895 , 7.04713064713 , -110.804884005 , -4.44793701172 , 2.90679931641 , 0.419616699219 
2018/05/16 11:35:11.147408 , 0.01806640625 , -0.01513671875 , 1.10546875 , 12.294993895 , 7.04713064713 , -110.804884005 , -4.44793701172 , 2.90679931641 , 0.419616699219 
2018/05/16 11:35:11.439899 , 0.01806640625 , -0.01513671875 , 1.10546875 , 12.294993895 , 7.04713064713 , -110.804884005 , -4.44793701172 , 2.90679931641 , 0.419616699219 
2018/05/16 11:35:11.732389 , 0.01806640625 , -0.01513671875 , 1.10546875 , 12.294993895 , 7.04713064713 , -110.804884005 , -4.44793701172 , 2.90679931641 , 0.419616699219 
2018/05/16 11:35:12.024913 , -0.0029296875 , 0.03271484375 , 1.05102539062 , 10.4957264957 , 6.29743589744 , -111.554578755 , -3.84521484375 , 3.28826904297 , 1.17492675781 
2018/05/16 11:35:12.317422 , -0.0029296875 , 0.03271484375 , 1.05102539062 , 10.4957264957 , 6.29743589744 , -111.554578755 , -3.84521484375 , 3.28826904297 , 1.17492675781 
2018/05/16 11:35:12.609915 , -0.0029296875 , 0.03271484375 , 1.05102539062 , 10.4957264957 , 6.29743589744 , -111.554578755 , -3.84521484375 , 3.28826904297 , 1.17492675781 
2018/05/16 11:35:12.902413 , -0.0029296875 , 0.03271484375 , 1.05102539062 , 12.8947496947 , 7.34700854701 , -111.554578755 , -4.57000732422 , 3.99017333984 , 0.396728515625 
2018/05/16 11:35:13.195202 , 0.037841796875 , 0.069580078125 , 1.02319335938 , 12.8947496947 , 7.34700854701 , -111.554578755 , -4.57000732422 , 3.99017333984 , 0.396728515625 
2018/05/16 11:35:13.487428 , 0.037841796875 , 0.069580078125 , 1.02319335938 , 12.8947496947 , 7.34700854701 , -111.554578755 , -4.57000732422 , 3.99017333984 , 0.396728515625 
2018/05/16 11:35:13.779970 , 0.037841796875 , 0.069580078125 , 1.02319335938 , 12.8947496947 , 7.34700854701 , -111.554578755 , -4.10461425781 , 3.49426269531 , -0.320434570312 
2018/05/16 11:35:14.121266 , 0.003662109375 , 0.021484375 , 1.072265625 , 11.5452991453 , 7.04713064713 , -109.905250305 , -4.10461425781 , 3.49426269531 , -0.320434570312 
2018/05/16 11:35:14.413880 , 0.003662109375 , 0.021484375 , 1.072265625 , 11.5452991453 , 7.04713064713 , -109.905250305 , -4.10461425781 , 3.49426269531 , -0.320434570312 
2018/05/16 11:35:14.706232 , 0.003662109375 , 0.021484375 , 1.072265625 , 11.5452991453 , 7.04713064713 , -109.905250305 , -4.10461425781 , 3.49426269531 , -0.320434570312 
2018/05/16 11:35:14.998776 , -0.0009765625 , -0.025390625 , 1.04370117188 , 12.8947496947 , 7.64688644689 , -112.604151404 , -4.47082519531 , 3.99017333984 , 0.434875488281 
2018/05/16 11:35:15.291261 , -0.0009765625 , -0.025390625 , 1.04370117188 , 12.8947496947 , 7.64688644689 , -112.604151404 , -4.47082519531 , 3.99017333984 , 0.434875488281 
2018/05/16 11:35:15.583768 , -0.0009765625 , -0.025390625 , 1.04370117188 , 12.8947496947 , 7.64688644689 , -112.604151404 , -4.47082519531 , 3.99017333984 , 0.434875488281 
2018/05/16 11:35:15.876252 , -0.0009765625 , -0.025390625 , 1.04370117188 , 12.5948717949 , 8.69645909646 , -112.904029304 , -4.47845458984 , 2.79998779297 , -0.640869140625 
2018/05/16 11:35:16.168938 , 0.007080078125 , 0.0166015625 , 1.04760742188 , 12.5948717949 , 8.69645909646 , -112.904029304 , -4.47845458984 , 2.79998779297 , -0.640869140625 
2018/05/16 11:35:16.461248 , 0.007080078125 , 0.0166015625 , 1.04760742188 , 12.5948717949 , 8.69645909646 , -112.904029304 , -4.47845458984 , 2.79998779297 , -0.640869140625 
2018/05/16 11:35:16.753915 , 0.007080078125 , 0.0166015625 , 1.04760742188 , 12.5948717949 , 8.69645909646 , -112.904029304 , -4.81414794922 , 4.95910644531 , -1.46484375 
2018/05/16 11:35:17.046278 , -0.006103515625 , -0.000244140625 , 1.01953125 , 11.9951159951 , 6.74725274725 , -110.654945055 , -4.81414794922 , 4.95910644531 , -1.46484375 
2018/05/16 11:35:17.338805 , -0.006103515625 , -0.000244140625 , 1.01953125 , 11.9951159951 , 6.74725274725 , -110.654945055 , -4.81414794922 , 4.95910644531 , -1.46484375 
2018/05/16 11:35:17.631282 , -0.006103515625 , -0.000244140625 , 1.01953125 , 11.9951159951 , 6.74725274725 , -110.654945055 , -4.81414794922 , 4.95910644531 , -1.46484375 
2018/05/16 11:35:17.923778 , -0.006103515625 , -0.000244140625 , 1.01953125 , 12.294993895 , 7.04713064713 , -111.854456654 , -3.44848632812 , 5.70678710938 , 0.0228881835938 
2018/05/16 11:35:18.216479 , 0.01171875 , 0.059814453125 , 1.01025390625 , 12.294993895 , 7.04713064713 , -111.854456654 , -3.44848632812 , 5.70678710938 , 0.0228881835938 
2018/05/16 11:35:18.508849 , 0.01171875 , 0.059814453125 , 1.01025390625 , 12.294993895 , 7.04713064713 , -111.854456654 , -3.44848632812 , 5.70678710938 , 0.0228881835938 
2018/05/16 11:35:18.801309 , 0.01171875 , 0.059814453125 , 1.01025390625 , 12.294993895 , 7.04713064713 , -111.854456654 , -6.34002685547 , 3.95202636719 , -0.114440917969 
2018/05/16 11:35:19.093795 , 0.0859375 , 0.059814453125 , 1.07495117188 , 13.0446886447 , 8.54652014652 , -110.654945055 , -6.34002685547 , 3.95202636719 , -0.114440917969 
2018/05/16 11:35:19.386360 , 0.0859375 , 0.059814453125 , 1.07495117188 , 13.0446886447 , 8.54652014652 , -110.654945055 , -6.34002685547 , 3.95202636719 , -0.114440917969 
2018/05/16 11:35:19.678968 , 0.0859375 , 0.059814453125 , 1.07495117188 , 13.0446886447 , 8.54652014652 , -110.654945055 , -6.34002685547 , 3.95202636719 , -0.114440917969 
2018/05/16 11:35:19.971544 , -0.02880859375 , 0.052001953125 , 1.01806640625 , 13.0446886447 , 8.54652014652 , -110.654945055 , -3.19671630859 , 3.63159179688 , 0.434875488281 
2018/05/16 11:35:20.264004 , -0.02880859375 , 0.052001953125 , 1.01806640625 , 13.0446886447 , 8.54652014652 , -110.654945055 , -3.19671630859 , 3.63159179688 , 0.434875488281 
2018/05/16 11:35:20.556402 , -0.02880859375 , 0.052001953125 , 1.01806640625 , 13.0446886447 , 8.54652014652 , -110.654945055 , -3.19671630859 , 3.63159179688 , 0.434875488281 
2018/05/16 11:35:20.848987 , -0.02880859375 , 0.052001953125 , 1.01806640625 , 11.3953601954 , 5.69768009768 , -113.353846154 , -4.19616699219 , 2.54058837891 , 1.31988525391 
2018/05/16 11:35:21.141563 , 0.00439453125 , 0.014404296875 , 0.980712890625 , 11.3953601954 , 5.69768009768 , -113.353846154 , -4.19616699219 , 2.54058837891 , 1.31988525391 
2018/05/16 11:35:21.433918 , 0.00439453125 , 0.014404296875 , 0.980712890625 , 11.3953601954 , 5.69768009768 , -113.353846154 , -4.19616699219 , 2.54058837891 , 1.31988525391 
2018/05/16 11:35:21.726193 , 0.00439453125 , 0.014404296875 , 0.980712890625 , 11.3953601954 , 5.69768009768 , -113.353846154 , -4.19616699219 , 2.54058837891 , 1.31988525391 
2018/05/16 11:35:22.018658 , -0.0419921875 , 0.07666015625 , 1.0458984375 , 11.3953601954 , 5.69768009768 , -113.353846154 , -3.57818603516 , 5.04302978516 , -0.442504882812 
2018/05/16 11:35:22.311164 , -0.0419921875 , 0.07666015625 , 1.0458984375 , 11.3953601954 , 5.69768009768 , -113.353846154 , -3.57818603516 , 5.04302978516 , -0.442504882812 
2018/05/16 11:35:22.603744 , -0.0419921875 , 0.07666015625 , 1.0458984375 , 11.3953601954 , 5.69768009768 , -113.353846154 , -3.57818603516 , 5.04302978516 , -0.442504882812 
2018/05/16 11:35:22.896080 , -0.0419921875 , 0.07666015625 , 1.0458984375 , 11.5452991453 , 5.54774114774 , -111.554578755 , -4.85992431641 , 3.05938720703 , 1.57165527344 
2018/05/16 11:35:23.188665 , -0.0146484375 , 0.0771484375 , 1.00219726562 , 11.5452991453 , 5.54774114774 , -111.554578755 , -4.85992431641 , 3.05938720703 , 1.57165527344 
2018/05/16 11:35:23.480932 , -0.0146484375 , 0.0771484375 , 1.00219726562 , 11.5452991453 , 5.54774114774 , -111.554578755 , -4.85992431641 , 3.05938720703 , 1.57165527344 
2018/05/16 11:35:23.773398 , -0.0146484375 , 0.0771484375 , 1.00219726562 , 11.5452991453 , 5.54774114774 , -111.554578755 , -3.24249267578 , 4.67681884766 , 0.892639160156 
2018/05/16 11:35:24.065957 , -0.07568359375 , 0.037353515625 , 1.04077148438 , 11.5452991453 , 5.54774114774 , -111.554578755 , -3.24249267578 , 4.67681884766 , 0.892639160156 
2018/05/16 11:35:24.358308 , -0.07568359375 , 0.037353515625 , 1.04077148438 , 11.5452991453 , 5.54774114774 , -111.554578755 , -3.24249267578 , 4.67681884766 , 0.892639160156 
2018/05/16 11:35:24.699505 , -0.07568359375 , 0.037353515625 , 1.04077148438 , 11.5452991453 , 5.54774114774 , -111.554578755 , -3.24249267578 , 4.67681884766 , 0.892639160156 
2018/05/16 11:35:24.991942 , 0.0322265625 , 0.059814453125 , 0.97900390625 , 11.5452991453 , 5.54774114774 , -111.554578755 , -4.19616699219 , 3.27301025391 , 0.160217285156 
2018/05/16 11:35:25.284445 , 0.0322265625 , 0.059814453125 , 0.97900390625 , 11.5452991453 , 5.54774114774 , -111.554578755 , -4.19616699219 , 3.27301025391 , 0.160217285156 
2018/05/16 11:35:25.576878 , 0.0322265625 , 0.059814453125 , 0.97900390625 , 11.5452991453 , 5.54774114774 , -111.554578755 , -4.19616699219 , 3.27301025391 , 0.160217285156 
2018/05/16 11:35:25.869366 , 0.0322265625 , 0.059814453125 , 0.97900390625 , 10.7956043956 , 5.84761904762 , -111.554578755 , -3.90625 , 4.07409667969 , -0.396728515625 
2018/05/16 11:35:26.161993 , -0.0166015625 , 0.041748046875 , 1.060546875 , 10.7956043956 , 5.84761904762 , -111.554578755 , -3.90625 , 4.07409667969 , -0.396728515625 
2018/05/16 11:35:26.454526 , -0.0166015625 , 0.041748046875 , 1.060546875 , 10.7956043956 , 5.84761904762 , -111.554578755 , -3.90625 , 4.07409667969 , -0.396728515625 
2018/05/16 11:35:26.746709 , -0.0166015625 , 0.041748046875 , 1.060546875 , 10.7956043956 , 5.84761904762 , -111.554578755 , -3.09753417969 , 5.11932373047 , 0.747680664062 
2018/05/16 11:35:27.039183 , -0.0126953125 , 0.027587890625 , 1.04516601562 , 13.0446886447 , 6.74725274725 , -111.404639805 , -3.09753417969 , 5.11932373047 , 0.747680664062 
2018/05/16 11:35:27.331682 , -0.0126953125 , 0.027587890625 , 1.04516601562 , 13.0446886447 , 6.74725274725 , -111.404639805 , -3.09753417969 , 5.11932373047 , 0.747680664062 
2018/05/16 11:35:27.624111 , -0.0126953125 , 0.027587890625 , 1.04516601562 , 13.0446886447 , 6.74725274725 , -111.404639805 , -3.09753417969 , 5.11932373047 , 0.747680664062 
2018/05/16 11:35:27.916555 , -0.0126953125 , 0.027587890625 , 1.04516601562 , 13.0446886447 , 6.74725274725 , -111.404639805 , -3.99017333984 , 5.66864013672 , -0.328063964844 
2018/05/16 11:35:28.209118 , 0.070556640625 , -0.0009765625 , 1.04077148438 , 13.0446886447 , 6.74725274725 , -111.404639805 , -3.99017333984 , 5.66864013672 , -0.328063964844 
2018/05/16 11:35:28.501537 , 0.070556640625 , -0.0009765625 , 1.04077148438 , 13.0446886447 , 6.74725274725 , -111.404639805 , -3.99017333984 , 5.66864013672 , -0.328063964844 
2018/05/16 11:35:28.842703 , 0.070556640625 , -0.0009765625 , 1.04077148438 , 13.0446886447 , 6.74725274725 , -111.404639805 , -5.33294677734 , 5.39398193359 , -0.923156738281 
2018/05/16 11:35:29.135332 , -0.024658203125 , 0.05712890625 , 1.04345703125 , 13.0446886447 , 6.74725274725 , -111.404639805 , -5.33294677734 , 5.39398193359 , -0.923156738281 
2018/05/16 11:35:29.427619 , -0.024658203125 , 0.05712890625 , 1.04345703125 , 13.0446886447 , 6.74725274725 , -111.404639805 , -5.33294677734 , 5.39398193359 , -0.923156738281 
2018/05/16 11:35:29.720058 , -0.024658203125 , 0.05712890625 , 1.04345703125 , 13.0446886447 , 6.74725274725 , -111.404639805 , -5.33294677734 , 5.39398193359 , -0.923156738281 
2018/05/16 11:35:30.012559 , -0.03076171875 , 0.082763671875 , 1.03564453125 , 11.9951159951 , 6.44737484737 , -112.004395604 , -3.37982177734 , 4.54711914062 , 0.0 
2018/05/16 11:35:30.305069 , -0.03076171875 , 0.082763671875 , 1.03564453125 , 11.9951159951 , 6.44737484737 , -112.004395604 , -3.37982177734 , 4.54711914062 , 0.0 
2018/05/16 11:35:30.597516 , -0.03076171875 , 0.082763671875 , 1.03564453125 , 11.9951159951 , 6.44737484737 , -112.004395604 , -3.37982177734 , 4.54711914062 , 0.0 
2018/05/16 11:35:30.889938 , -0.03076171875 , 0.082763671875 , 1.03564453125 , 11.3953601954 , 6.44737484737 , -111.104761905 , -2.95257568359 , 5.11932373047 , -0.00762939453125 
2018/05/16 11:35:31.182670 , 0.0146484375 , 0.02978515625 , 0.97216796875 , 11.3953601954 , 6.44737484737 , -111.104761905 , -2.95257568359 , 5.11932373047 , -0.00762939453125 
2018/05/16 11:35:31.474975 , 0.0146484375 , 0.02978515625 , 0.97216796875 , 11.3953601954 , 6.44737484737 , -111.104761905 , -2.95257568359 , 5.11932373047 , -0.00762939453125 
2018/05/16 11:35:31.767488 , 0.0146484375 , 0.02978515625 , 0.97216796875 , 11.3953601954 , 6.44737484737 , -111.104761905 , -3.57055664062 , 2.66265869141 , 0.320434570312 
2018/05/16 11:35:32.059861 , -0.0068359375 , 0.062255859375 , 1.02978515625 , 11.5452991453 , 6.59731379731 , -112.604151404 , -3.57055664062 , 2.66265869141 , 0.320434570312 
2018/05/16 11:35:32.352466 , -0.0068359375 , 0.062255859375 , 1.02978515625 , 11.5452991453 , 6.59731379731 , -112.604151404 , -3.57055664062 , 2.66265869141 , 0.320434570312 
2018/05/16 11:35:32.644783 , -0.0068359375 , 0.062255859375 , 1.02978515625 , 11.5452991453 , 6.59731379731 , -112.604151404 , -3.57055664062 , 2.66265869141 , 0.320434570312 
2018/05/16 11:35:32.937254 , -0.0068359375 , 0.062255859375 , 1.02978515625 , 11.3953601954 , 6.1474969475 , -112.004395604 , -4.73022460938 , 4.75311279297 , -1.50299072266 
2018/05/16 11:35:33.229859 , 0.01953125 , 0.037109375 , 1.03295898438 , 11.3953601954 , 6.1474969475 , -112.004395604 , -4.73022460938 , 4.75311279297 , -1.50299072266 
2018/05/16 11:35:33.522152 , 0.01953125 , 0.037109375 , 1.03295898438 , 11.3953601954 , 6.1474969475 , -112.004395604 , -4.73022460938 , 4.75311279297 , -1.50299072266 
2018/05/16 11:35:33.814586 , 0.01953125 , 0.037109375 , 1.03295898438 , 11.3953601954 , 6.1474969475 , -112.004395604 , -4.17327880859 , 4.23431396484 , -0.228881835938 
2018/05/16 11:35:34.107236 , -0.015625 , 0.054443359375 , 1.0498046875 , 12.294993895 , 6.59731379731 , -110.205128205 , -4.17327880859 , 4.23431396484 , -0.228881835938 
2018/05/16 11:35:34.399588 , -0.015625 , 0.054443359375 , 1.0498046875 , 12.294993895 , 6.59731379731 , -110.205128205 , -4.17327880859 , 4.23431396484 , -0.228881835938 
2018/05/16 11:35:34.692199 , -0.015625 , 0.054443359375 , 1.0498046875 , 12.294993895 , 6.59731379731 , -110.205128205 , -4.17327880859 , 4.23431396484 , -0.228881835938 
2018/05/16 11:35:34.984464 , -0.041748046875 , 0.052001953125 , 1.02368164062 , 11.2454212454 , 6.59731379731 , -111.554578755 , -4.59289550781 , 6.07299804688 , -0.473022460938 
2018/05/16 11:35:35.277113 , -0.041748046875 , 0.052001953125 , 1.02368164062 , 11.2454212454 , 6.59731379731 , -111.554578755 , -4.59289550781 , 6.07299804688 , -0.473022460938 
2018/05/16 11:35:35.569418 , -0.041748046875 , 0.052001953125 , 1.02368164062 , 11.2454212454 , 6.59731379731 , -111.554578755 , -4.59289550781 , 6.07299804688 , -0.473022460938 
2018/05/16 11:35:35.861876 , -0.041748046875 , 0.052001953125 , 1.02368164062 , 11.5452991453 , 7.64688644689 , -111.254700855 , -2.91442871094 , 6.05773925781 , 0.732421875 
2018/05/16 11:35:36.154530 , -0.03173828125 , 0.01904296875 , 1.052734375 , 11.5452991453 , 7.64688644689 , -111.254700855 , -2.91442871094 , 6.05773925781 , 0.732421875 
2018/05/16 11:35:36.447042 , -0.03173828125 , 0.01904296875 , 1.052734375 , 11.5452991453 , 7.64688644689 , -111.254700855 , -2.91442871094 , 6.05773925781 , 0.732421875 
2018/05/16 11:35:36.739357 , -0.03173828125 , 0.01904296875 , 1.052734375 , 11.5452991453 , 7.64688644689 , -111.254700855 , -2.91442871094 , 6.05773925781 , 0.732421875 
2018/05/16 11:35:37.031831 , -0.02685546875 , 0.024169921875 , 1.05297851562 , 11.8451770452 , 5.54774114774 , -110.505006105 , -4.98199462891 , 4.76837158203 , 0.541687011719 
2018/05/16 11:35:37.324205 , -0.02685546875 , 0.024169921875 , 1.05297851562 , 11.8451770452 , 5.54774114774 , -110.505006105 , -4.98199462891 , 4.76837158203 , 0.541687011719 
2018/05/16 11:35:37.616670 , -0.02685546875 , 0.024169921875 , 1.05297851562 , 11.8451770452 , 5.54774114774 , -110.505006105 , -4.98199462891 , 4.76837158203 , 0.541687011719 
2018/05/16 11:35:37.909311 , -0.02685546875 , 0.024169921875 , 1.05297851562 , 12.7448107448 , 6.74725274725 , -111.404639805 , -4.66918945312 , 4.2724609375 , -1.36566162109 
2018/05/16 11:35:38.201780 , 0.0302734375 , 0.0400390625 , 1.09790039062 , 12.7448107448 , 6.74725274725 , -111.404639805 , -4.66918945312 , 4.2724609375 , -1.36566162109 
2018/05/16 11:35:38.494158 , 0.0302734375 , 0.0400390625 , 1.09790039062 , 12.7448107448 , 6.74725274725 , -111.404639805 , -4.66918945312 , 4.2724609375 , -1.36566162109 
2018/05/16 11:35:38.786671 , 0.0302734375 , 0.0400390625 , 1.09790039062 , 12.7448107448 , 6.74725274725 , -111.404639805 , -2.84576416016 , 3.96728515625 , 1.66320800781 
2018/05/16 11:35:39.079245 , -0.048828125 , 0.0087890625 , 1.05004882812 , 12.294993895 , 7.34700854701 , -110.505006105 , -2.84576416016 , 3.96728515625 , 1.66320800781 
2018/05/16 11:35:39.371760 , -0.048828125 , 0.0087890625 , 1.05004882812 , 12.294993895 , 7.34700854701 , -110.505006105 , -2.84576416016 , 3.96728515625 , 1.66320800781 
2018/05/16 11:35:39.664079 , -0.048828125 , 0.0087890625 , 1.05004882812 , 12.294993895 , 7.34700854701 , -110.505006105 , -2.84576416016 , 3.96728515625 , 1.66320800781 
2018/05/16 11:35:39.956463 , 0.0263671875 , 0.075439453125 , 1.03564453125 , 12.7448107448 , 6.74725274725 , -111.104761905 , -3.69262695312 , 4.05120849609 , 1.22833251953 
2018/05/16 11:35:40.249020 , 0.0263671875 , 0.075439453125 , 1.03564453125 , 12.7448107448 , 6.74725274725 , -111.104761905 , -3.69262695312 , 4.05120849609 , 1.22833251953 
2018/05/16 11:35:40.541407 , 0.0263671875 , 0.075439453125 , 1.03564453125 , 12.7448107448 , 6.74725274725 , -111.104761905 , -3.69262695312 , 4.05120849609 , 1.22833251953 
2018/05/16 11:35:40.833953 , 0.0263671875 , 0.075439453125 , 1.03564453125 , 12.7448107448 , 6.74725274725 , -111.104761905 , -5.28717041016 , 4.73022460938 , -2.05993652344 
2018/05/16 11:35:41.126546 , -0.032958984375 , 0.06787109375 , 1.04565429688 , 13.7943833944 , 7.19706959707 , -111.404639805 , -5.28717041016 , 4.73022460938 , -2.05993652344 
2018/05/16 11:35:41.418861 , -0.032958984375 , 0.06787109375 , 1.04565429688 , 13.7943833944 , 7.19706959707 , -111.404639805 , -5.28717041016 , 4.73022460938 , -2.05993652344 
2018/05/16 11:35:41.711303 , -0.032958984375 , 0.06787109375 , 1.04565429688 , 13.7943833944 , 7.19706959707 , -111.404639805 , -5.28717041016 , 4.73022460938 , -2.05993652344 
2018/05/16 11:35:42.004933 , 0.02783203125 , -0.029541015625 , 0.998046875 , 14.0942612943 , 6.74725274725 , -111.404639805 , -3.82232666016 , 3.08227539062 , -0.831604003906 
2018/05/16 11:35:42.345024 , 0.02783203125 , -0.029541015625 , 0.998046875 , 14.0942612943 , 6.74725274725 , -111.404639805 , -3.82232666016 , 3.08227539062 , -0.831604003906 
2018/05/16 11:35:42.637478 , 0.02783203125 , -0.029541015625 , 0.998046875 , 14.0942612943 , 6.74725274725 , -111.404639805 , -3.82232666016 , 3.08227539062 , -0.831604003906 
2018/05/16 11:35:42.929952 , 0.02783203125 , -0.029541015625 , 0.998046875 , 11.5452991453 , 5.84761904762 , -112.154334554 , -3.23486328125 , 3.68499755859 , 1.48010253906 
2018/05/16 11:35:43.222507 , -0.010986328125 , 0.04052734375 , 1.0849609375 , 11.5452991453 , 5.84761904762 , -112.154334554 , -3.23486328125 , 3.68499755859 , 1.48010253906 
2018/05/16 11:35:43.514896 , -0.010986328125 , 0.04052734375 , 1.0849609375 , 11.5452991453 , 5.84761904762 , -112.154334554 , -3.23486328125 , 3.68499755859 , 1.48010253906 
2018/05/16 11:35:43.807342 , -0.010986328125 , 0.04052734375 , 1.0849609375 , 11.5452991453 , 5.84761904762 , -112.154334554 , -3.76892089844 , 4.23431396484 , -1.29699707031 
2018/05/16 11:35:44.099858 , -0.02197265625 , -0.001708984375 , 0.992431640625 , 11.5452991453 , 6.29743589744 , -111.554578755 , -3.76892089844 , 4.23431396484 , -1.29699707031 
2018/05/16 11:35:44.392458 , -0.02197265625 , -0.001708984375 , 0.992431640625 , 11.5452991453 , 6.29743589744 , -111.554578755 , -3.76892089844 , 4.23431396484 , -1.29699707031 
2018/05/16 11:35:44.684805 , -0.02197265625 , -0.001708984375 , 0.992431640625 , 11.5452991453 , 6.29743589744 , -111.554578755 , -3.76892089844 , 4.23431396484 , -1.29699707031 
2018/05/16 11:35:44.977319 , 0.025146484375 , -0.006103515625 , 1.00903320312 , 12.5948717949 , 5.54774114774 , -110.804884005 , -2.9296875 , 5.05065917969 , -0.152587890625 
2018/05/16 11:35:45.269784 , 0.025146484375 , -0.006103515625 , 1.00903320312 , 12.5948717949 , 5.54774114774 , -110.804884005 , -2.9296875 , 5.05065917969 , -0.152587890625 
2018/05/16 11:35:45.562236 , 0.025146484375 , -0.006103515625 , 1.00903320312 , 12.5948717949 , 5.54774114774 , -110.804884005 , -2.9296875 , 5.05065917969 , -0.152587890625 
2018/05/16 11:35:45.854669 , 0.025146484375 , -0.006103515625 , 1.00903320312 , 11.3953601954 , 5.3978021978 , -111.704517705 , -4.32586669922 , 4.40979003906 , 0.396728515625 
2018/05/16 11:35:46.147216 , 0.0322265625 , 0.082763671875 , 1.05029296875 , 11.3953601954 , 5.3978021978 , -111.704517705 , -4.32586669922 , 4.40979003906 , 0.396728515625 
2018/05/16 11:35:46.439608 , 0.0322265625 , 0.082763671875 , 1.05029296875 , 11.3953601954 , 5.3978021978 , -111.704517705 , -4.32586669922 , 4.40979003906 , 0.396728515625 
2018/05/16 11:35:46.732107 , 0.0322265625 , 0.082763671875 , 1.05029296875 , 11.3953601954 , 5.3978021978 , -111.704517705 , -4.32586669922 , 4.40979003906 , 0.396728515625 
2018/05/16 11:35:47.024588 , 0.051513671875 , 0.0576171875 , 1.00073242188 , 11.2454212454 , 7.04713064713 , -112.904029304 , -4.22668457031 , 4.97436523438 , 1.36566162109 
2018/05/16 11:35:47.317128 , 0.051513671875 , 0.0576171875 , 1.00073242188 , 11.2454212454 , 7.04713064713 , -112.904029304 , -4.22668457031 , 4.97436523438 , 1.36566162109 
2018/05/16 11:35:47.609527 , 0.051513671875 , 0.0576171875 , 1.00073242188 , 11.2454212454 , 7.04713064713 , -112.904029304 , -4.22668457031 , 4.97436523438 , 1.36566162109 
2018/05/16 11:35:47.902025 , 0.051513671875 , 0.0576171875 , 1.00073242188 , 10.9455433455 , 5.3978021978 , -110.654945055 , -3.12805175781 , 5.62286376953 , 0.42724609375 
2018/05/16 11:35:48.194709 , 0.009521484375 , -0.023193359375 , 1.09765625 , 10.9455433455 , 5.3978021978 , -110.654945055 , -3.12805175781 , 5.62286376953 , 0.42724609375 
2018/05/16 11:35:48.487030 , 0.009521484375 , -0.023193359375 , 1.09765625 , 10.9455433455 , 5.3978021978 , -110.654945055 , -3.12805175781 , 5.62286376953 , 0.42724609375 
2018/05/16 11:35:48.779479 , 0.009521484375 , -0.023193359375 , 1.09765625 , 10.9455433455 , 5.3978021978 , -110.654945055 , -4.13513183594 , 4.42504882812 , 0.389099121094 
2018/05/16 11:35:49.072107 , 0.00439453125 , 0.0771484375 , 1.0576171875 , 11.8451770452 , 6.59731379731 , -110.804884005 , -4.13513183594 , 4.42504882812 , 0.389099121094 
2018/05/16 11:35:49.364442 , 0.00439453125 , 0.0771484375 , 1.0576171875 , 11.8451770452 , 6.59731379731 , -110.804884005 , -4.13513183594 , 4.42504882812 , 0.389099121094 
2018/05/16 11:35:49.657076 , 0.00439453125 , 0.0771484375 , 1.0576171875 , 11.8451770452 , 6.59731379731 , -110.804884005 , -4.13513183594 , 4.42504882812 , 0.389099121094 
2018/05/16 11:35:49.949400 , 0.016357421875 , -0.00830078125 , 1.01123046875 , 11.9951159951 , 7.79682539683 , -110.355067155 , -2.65502929688 , 5.59997558594 , 0.160217285156 
2018/05/16 11:35:50.242273 , 0.016357421875 , -0.00830078125 , 1.01123046875 , 11.9951159951 , 7.79682539683 , -110.355067155 , -2.65502929688 , 5.59997558594 , 0.160217285156 
2018/05/16 11:35:50.534371 , 0.016357421875 , -0.00830078125 , 1.01123046875 , 11.9951159951 , 7.79682539683 , -110.355067155 , -2.65502929688 , 5.59997558594 , 0.160217285156 
2018/05/16 11:35:50.826972 , 0.016357421875 , -0.00830078125 , 1.01123046875 , 11.9951159951 , 7.79682539683 , -110.355067155 , -4.09698486328 , 4.03594970703 , -0.816345214844 
2018/05/16 11:35:51.119482 , 0.012451171875 , -0.0185546875 , 1.03833007812 , 11.9951159951 , 6.1474969475 , -112.754090354 , -4.09698486328 , 4.03594970703 , -0.816345214844 
2018/05/16 11:35:51.411905 , 0.012451171875 , -0.0185546875 , 1.03833007812 , 11.9951159951 , 6.1474969475 , -112.754090354 , -4.09698486328 , 4.03594970703 , -0.816345214844 
2018/05/16 11:35:51.704446 , 0.012451171875 , -0.0185546875 , 1.03833007812 , 11.9951159951 , 6.1474969475 , -112.754090354 , -4.09698486328 , 4.03594970703 , -0.816345214844 
2018/05/16 11:35:51.996715 , 0.007080078125 , -0.015625 , 1.04296875 , 10.6456654457 , 8.24664224664 , -110.355067155 , -4.10461425781 , 5.36346435547 , -0.892639160156 
2018/05/16 11:35:52.289354 , 0.007080078125 , -0.015625 , 1.04296875 , 10.6456654457 , 8.24664224664 , -110.355067155 , -4.10461425781 , 5.36346435547 , -0.892639160156 
2018/05/16 11:35:52.581777 , 0.007080078125 , -0.015625 , 1.04296875 , 10.6456654457 , 8.24664224664 , -110.355067155 , -4.10461425781 , 5.36346435547 , -0.892639160156 
2018/05/16 11:35:52.874165 , 0.007080078125 , -0.015625 , 1.04296875 , 12.4449328449 , 6.74725274725 , -112.004395604 , -3.34167480469 , 4.47845458984 , -0.785827636719 
2018/05/16 11:35:53.166653 , -0.00244140625 , -0.0087890625 , 1.01391601562 , 12.4449328449 , 6.74725274725 , -112.004395604 , -3.34167480469 , 4.47845458984 , -0.785827636719 
2018/05/16 11:35:53.459149 , -0.00244140625 , -0.0087890625 , 1.01391601562 , 12.4449328449 , 6.74725274725 , -112.004395604 , -3.34167480469 , 4.47845458984 , -0.785827636719 
2018/05/16 11:35:53.751608 , -0.00244140625 , -0.0087890625 , 1.01391601562 , 12.4449328449 , 6.74725274725 , -112.004395604 , -4.37164306641 , 6.20269775391 , 0.892639160156 
2018/05/16 11:35:54.044201 , 0.017578125 , 0.0341796875 , 1.06494140625 , 10.7956043956 , 7.04713064713 , -111.854456654 , -4.37164306641 , 6.20269775391 , 0.892639160156 
2018/05/16 11:35:54.336729 , 0.017578125 , 0.0341796875 , 1.06494140625 , 10.7956043956 , 7.04713064713 , -111.854456654 , -4.37164306641 , 6.20269775391 , 0.892639160156 
2018/05/16 11:35:54.629075 , 0.017578125 , 0.0341796875 , 1.06494140625 , 10.7956043956 , 7.04713064713 , -111.854456654 , -4.37164306641 , 6.20269775391 , 0.892639160156 
2018/05/16 11:35:54.921540 , 0.017578125 , 0.0341796875 , 1.06494140625 , 9.59609279609 , 6.74725274725 , -110.355067155 , -5.09643554688 , 5.19561767578 , -0.320434570312 
2018/05/16 11:35:55.214280 , -0.028564453125 , 0.043212890625 , 1.02978515625 , 9.59609279609 , 6.74725274725 , -110.355067155 , -5.09643554688 , 5.19561767578 , -0.320434570312 
2018/05/16 11:35:55.506512 , -0.028564453125 , 0.043212890625 , 1.02978515625 , 9.59609279609 , 6.74725274725 , -110.355067155 , -5.09643554688 , 5.19561767578 , -0.320434570312 
2018/05/16 11:35:55.799211 , -0.028564453125 , 0.043212890625 , 1.02978515625 , 9.59609279609 , 6.74725274725 , -110.355067155 , -5.59997558594 , 4.74548339844 , -0.503540039062 
2018/05/16 11:35:56.091710 , 0.01416015625 , 0.01171875 , 1.0625 , 11.2454212454 , 7.64688644689 , -112.604151404 , -5.59997558594 , 4.74548339844 , -0.503540039062 
2018/05/16 11:35:56.384179 , 0.01416015625 , 0.01171875 , 1.0625 , 11.2454212454 , 7.64688644689 , -112.604151404 , -5.59997558594 , 4.74548339844 , -0.503540039062 
2018/05/16 11:35:56.676596 , 0.01416015625 , 0.01171875 , 1.0625 , 11.2454212454 , 7.64688644689 , -112.604151404 , -5.59997558594 , 4.74548339844 , -0.503540039062 
2018/05/16 11:35:56.968927 , 0.0029296875 , 0.0673828125 , 1.05151367188 , 11.6952380952 , 7.19706959707 , -111.404639805 , -5.93566894531 , 5.52368164062 , 0.0839233398438 
2018/05/16 11:35:57.261556 , 0.0029296875 , 0.0673828125 , 1.05151367188 , 11.6952380952 , 7.19706959707 , -111.404639805 , -5.93566894531 , 5.52368164062 , 0.0839233398438 
2018/05/16 11:35:57.554075 , 0.0029296875 , 0.0673828125 , 1.05151367188 , 11.6952380952 , 7.19706959707 , -111.404639805 , -5.93566894531 , 5.52368164062 , 0.0839233398438 
2018/05/16 11:35:57.846459 , 0.0029296875 , 0.0673828125 , 1.05151367188 , 12.5948717949 , 7.34700854701 , -111.554578755 , -4.74548339844 , 6.29425048828 , 1.17492675781 
2018/05/16 11:35:58.139000 , 0.02099609375 , 0.027099609375 , 1.00439453125 , 12.5948717949 , 7.34700854701 , -111.554578755 , -4.74548339844 , 6.29425048828 , 1.17492675781 
2018/05/16 11:35:58.431356 , 0.02099609375 , 0.027099609375 , 1.00439453125 , 12.5948717949 , 7.34700854701 , -111.554578755 , -4.74548339844 , 6.29425048828 , 1.17492675781 
2018/05/16 11:35:58.723993 , 0.02099609375 , 0.027099609375 , 1.00439453125 , 12.5948717949 , 7.34700854701 , -111.554578755 , -4.74548339844 , 6.29425048828 , 1.17492675781 
2018/05/16 11:35:59.016512 , -0.00341796875 , 0.04248046875 , 1.08178710938 , 11.2454212454 , 8.39658119658 , -110.205128205 , -2.9296875 , 4.85229492188 , -0.0152587890625 
2018/05/16 11:35:59.308981 , -0.00341796875 , 0.04248046875 , 1.08178710938 , 11.2454212454 , 8.39658119658 , -110.205128205 , -2.9296875 , 4.85229492188 , -0.0152587890625 
2018/05/16 11:35:59.601292 , -0.00341796875 , 0.04248046875 , 1.08178710938 , 11.2454212454 , 8.39658119658 , -110.205128205 , -2.9296875 , 4.85229492188 , -0.0152587890625 
2018/05/16 11:35:59.893918 , -0.00341796875 , 0.04248046875 , 1.08178710938 , 13.3445665446 , 6.29743589744 , -112.154334554 , -4.55474853516 , 5.36346435547 , -0.709533691406 
2018/05/16 11:36:00.186525 , -0.005615234375 , 0.053466796875 , 1.05346679688 , 13.3445665446 , 6.29743589744 , -112.154334554 , -4.55474853516 , 5.36346435547 , -0.709533691406 
2018/05/16 11:36:00.479011 , -0.005615234375 , 0.053466796875 , 1.05346679688 , 13.3445665446 , 6.29743589744 , -112.154334554 , -4.55474853516 , 5.36346435547 , -0.709533691406 
2018/05/16 11:36:00.771291 , -0.005615234375 , 0.053466796875 , 1.05346679688 , 13.3445665446 , 6.29743589744 , -112.154334554 , -5.37109375 , 3.57818603516 , -2.37274169922 
2018/05/16 11:36:01.063747 , 0.006591796875 , 0.039306640625 , 1.02197265625 , 13.3445665446 , 6.29743589744 , -112.154334554 , -5.37109375 , 3.57818603516 , -2.37274169922 
2018/05/16 11:36:01.356329 , 0.006591796875 , 0.039306640625 , 1.02197265625 , 13.3445665446 , 6.29743589744 , -112.154334554 , -5.37109375 , 3.57818603516 , -2.37274169922 
2018/05/16 11:36:01.648943 , 0.006591796875 , 0.039306640625 , 1.02197265625 , 13.3445665446 , 6.29743589744 , -112.154334554 , -5.37109375 , 3.57818603516 , -2.37274169922 
2018/05/16 11:36:01.941349 , 0.042724609375 , 0.04443359375 , 0.98974609375 , 10.9455433455 , 6.74725274725 , -111.104761905 , -3.70025634766 , 5.48553466797 , 0.587463378906 
2018/05/16 11:36:02.233805 , 0.042724609375 , 0.04443359375 , 0.98974609375 , 10.9455433455 , 6.74725274725 , -111.104761905 , -3.70025634766 , 5.48553466797 , 0.587463378906 
2018/05/16 11:36:02.526149 , 0.042724609375 , 0.04443359375 , 0.98974609375 , 10.9455433455 , 6.74725274725 , -111.104761905 , -3.70025634766 , 5.48553466797 , 0.587463378906 
2018/05/16 11:36:02.818716 , 0.042724609375 , 0.04443359375 , 0.98974609375 , 10.9455433455 , 6.74725274725 , -111.104761905 , -3.79943847656 , 2.96783447266 , -1.18255615234 
2018/05/16 11:36:03.111222 , 0.008544921875 , -0.01611328125 , 1.02709960938 , 10.9455433455 , 6.74725274725 , -111.104761905 , -3.79943847656 , 2.96783447266 , -1.18255615234 
2018/05/16 11:36:03.403677 , 0.008544921875 , -0.01611328125 , 1.02709960938 , 10.9455433455 , 6.74725274725 , -111.104761905 , -3.79943847656 , 2.96783447266 , -1.18255615234 
2018/05/16 11:36:03.696046 , 0.008544921875 , -0.01611328125 , 1.02709960938 , 10.9455433455 , 6.74725274725 , -111.104761905 , -3.79943847656 , 2.96783447266 , -1.18255615234 
2018/05/16 11:36:03.988638 , 0.034423828125 , -0.0224609375 , 1.015625 , 12.294993895 , 8.0967032967 , -112.154334554 , -2.89154052734 , 5.25665283203 , -0.907897949219 
2018/05/16 11:36:04.281203 , 0.034423828125 , -0.0224609375 , 1.015625 , 12.294993895 , 8.0967032967 , -112.154334554 , -2.89154052734 , 5.25665283203 , -0.907897949219 
2018/05/16 11:36:04.573526 , 0.034423828125 , -0.0224609375 , 1.015625 , 12.294993895 , 8.0967032967 , -112.154334554 , -2.89154052734 , 5.25665283203 , -0.907897949219 
2018/05/16 11:36:04.866024 , 0.034423828125 , -0.0224609375 , 1.015625 , 12.294993895 , 8.0967032967 , -112.154334554 , -6.11114501953 , 6.103515625 , -1.54113769531 
2018/05/16 11:36:05.158663 , -0.002685546875 , 0.02734375 , 1.03930664062 , 12.294993895 , 8.0967032967 , -112.154334554 , -6.11114501953 , 6.103515625 , -1.54113769531 
2018/05/16 11:36:05.450961 , -0.002685546875 , 0.02734375 , 1.03930664062 , 12.294993895 , 8.0967032967 , -112.154334554 , -6.11114501953 , 6.103515625 , -1.54113769531 
2018/05/16 11:36:05.743741 , -0.002685546875 , 0.02734375 , 1.03930664062 , 12.294993895 , 8.0967032967 , -112.154334554 , -6.11114501953 , 6.103515625 , -1.54113769531 
2018/05/16 11:36:06.036173 , -0.000732421875 , 0.02099609375 , 1.02490234375 , 12.294993895 , 8.0967032967 , -112.154334554 , -2.11334228516 , 3.28826904297 , 0.396728515625 
2018/05/16 11:36:06.328516 , -0.000732421875 , 0.02099609375 , 1.02490234375 , 12.294993895 , 8.0967032967 , -112.154334554 , -2.11334228516 , 3.28826904297 , 0.396728515625 
2018/05/16 11:36:06.621054 , -0.000732421875 , 0.02099609375 , 1.02490234375 , 12.294993895 , 8.0967032967 , -112.154334554 , -2.11334228516 , 3.28826904297 , 0.396728515625 
2018/05/16 11:36:06.913486 , -0.000732421875 , 0.02099609375 , 1.02490234375 , 12.4449328449 , 5.3978021978 , -110.654945055 , -4.50897216797 , 5.03540039062 , -0.679016113281 
2018/05/16 11:36:07.205998 , 0.0107421875 , 0.02685546875 , 0.9814453125 , 12.4449328449 , 5.3978021978 , -110.654945055 , -4.50897216797 , 5.03540039062 , -0.679016113281 
2018/05/16 11:36:07.498369 , 0.0107421875 , 0.02685546875 , 0.9814453125 , 12.4449328449 , 5.3978021978 , -110.654945055 , -4.50897216797 , 5.03540039062 , -0.679016113281 
2018/05/16 11:36:07.790863 , 0.0107421875 , 0.02685546875 , 0.9814453125 , 12.4449328449 , 5.3978021978 , -110.654945055 , -4.67681884766 , 4.67681884766 , -1.63269042969 
2018/05/16 11:36:08.083353 , 0.024658203125 , -0.028076171875 , 1.02001953125 , 13.0446886447 , 6.74725274725 , -111.404639805 , -4.67681884766 , 4.67681884766 , -1.63269042969 
2018/05/16 11:36:08.375933 , 0.024658203125 , -0.028076171875 , 1.02001953125 , 13.0446886447 , 6.74725274725 , -111.404639805 , -4.67681884766 , 4.67681884766 , -1.63269042969 
2018/05/16 11:36:08.668297 , 0.024658203125 , -0.028076171875 , 1.02001953125 , 13.0446886447 , 6.74725274725 , -111.404639805 , -4.67681884766 , 4.67681884766 , -1.63269042969 
2018/05/16 11:36:08.960799 , -0.02392578125 , 0.03857421875 , 1.072265625 , 13.0446886447 , 6.74725274725 , -111.404639805 , -4.96673583984 , 2.83813476562 , -0.0228881835938 
2018/05/16 11:36:09.253372 , -0.02392578125 , 0.03857421875 , 1.072265625 , 13.0446886447 , 6.74725274725 , -111.404639805 , -4.96673583984 , 2.83813476562 , -0.0228881835938 
2018/05/16 11:36:09.545818 , -0.02392578125 , 0.03857421875 , 1.072265625 , 13.0446886447 , 6.74725274725 , -111.404639805 , -4.96673583984 , 2.83813476562 , -0.0228881835938 
2018/05/16 11:36:09.838228 , -0.02392578125 , 0.03857421875 , 1.072265625 , 13.0446886447 , 6.74725274725 , -111.404639805 , -4.00543212891 , 3.26538085938 , -0.808715820312 
2018/05/16 11:36:10.130750 , 0.02294921875 , 0.05615234375 , 1.0791015625 , 13.0446886447 , 6.74725274725 , -111.404639805 , -4.00543212891 , 3.26538085938 , -0.808715820312 
2018/05/16 11:36:10.423236 , 0.02294921875 , 0.05615234375 , 1.0791015625 , 13.0446886447 , 6.74725274725 , -111.404639805 , -4.00543212891 , 3.26538085938 , -0.808715820312 
2018/05/16 11:36:10.715711 , 0.02294921875 , 0.05615234375 , 1.0791015625 , 13.0446886447 , 6.74725274725 , -111.404639805 , -4.00543212891 , 3.26538085938 , -0.808715820312 
2018/05/16 11:36:11.008215 , 0.005615234375 , 0.11083984375 , 1.01806640625 , 12.294993895 , 5.54774114774 , -111.554578755 , -4.05883789062 , 3.31115722656 , 0.473022460938 
2018/05/16 11:36:11.300756 , 0.005615234375 , 0.11083984375 , 1.01806640625 , 12.294993895 , 5.54774114774 , -111.554578755 , -4.05883789062 , 3.31115722656 , 0.473022460938 
2018/05/16 11:36:11.593175 , 0.005615234375 , 0.11083984375 , 1.01806640625 , 12.294993895 , 5.54774114774 , -111.554578755 , -4.05883789062 , 3.31115722656 , 0.473022460938 
2018/05/16 11:36:11.885668 , 0.005615234375 , 0.11083984375 , 1.01806640625 , 13.6444444444 , 6.29743589744 , -111.854456654 , -3.99780273438 , 3.44848632812 , -0.709533691406 
2018/05/16 11:36:12.178364 , -0.002197265625 , 0.04931640625 , 1.03247070312 , 13.6444444444 , 6.29743589744 , -111.854456654 , -3.99780273438 , 3.44848632812 , -0.709533691406 
2018/05/16 11:36:12.470720 , -0.002197265625 , 0.04931640625 , 1.03247070312 , 13.6444444444 , 6.29743589744 , -111.854456654 , -3.99780273438 , 3.44848632812 , -0.709533691406 
2018/05/16 11:36:12.763130 , -0.002197265625 , 0.04931640625 , 1.03247070312 , 13.6444444444 , 6.29743589744 , -111.854456654 , -5.56945800781 , 3.89099121094 , 0.221252441406 
2018/05/16 11:36:13.055728 , 0.066650390625 , -0.005126953125 , 1.0263671875 , 11.9951159951 , 7.19706959707 , -113.053968254 , -5.56945800781 , 3.89099121094 , 0.221252441406 
2018/05/16 11:36:13.348111 , 0.066650390625 , -0.005126953125 , 1.0263671875 , 11.9951159951 , 7.19706959707 , -113.053968254 , -5.56945800781 , 3.89099121094 , 0.221252441406 
2018/05/16 11:36:13.640576 , 0.066650390625 , -0.005126953125 , 1.0263671875 , 11.9951159951 , 7.19706959707 , -113.053968254 , -5.56945800781 , 3.89099121094 , 0.221252441406 
2018/05/16 11:36:13.933153 , 0.066650390625 , -0.005126953125 , 1.0263671875 , 12.294993895 , 5.84761904762 , -111.554578755 , -6.37817382812 , 3.82232666016 , -1.04522705078 
2018/05/16 11:36:14.225654 , 0.005126953125 , 0.027587890625 , 1.02978515625 , 12.294993895 , 5.84761904762 , -111.554578755 , -6.37817382812 , 3.82232666016 , -1.04522705078 
2018/05/16 11:36:14.518159 , 0.005126953125 , 0.027587890625 , 1.02978515625 , 12.294993895 , 5.84761904762 , -111.554578755 , -6.37817382812 , 3.82232666016 , -1.04522705078 
2018/05/16 11:36:14.810796 , 0.005126953125 , 0.027587890625 , 1.02978515625 , 12.294993895 , 5.84761904762 , -111.554578755 , -4.5166015625 , 4.65393066406 , -1.27410888672 
2018/05/16 11:36:15.103251 , 0.018310546875 , 0.059326171875 , 1.0546875 , 12.7448107448 , 6.1474969475 , -110.654945055 , -4.5166015625 , 4.65393066406 , -1.27410888672 
2018/05/16 11:36:15.395627 , 0.018310546875 , 0.059326171875 , 1.0546875 , 12.7448107448 , 6.1474969475 , -110.654945055 , -4.5166015625 , 4.65393066406 , -1.27410888672 
2018/05/16 11:36:15.687970 , 0.018310546875 , 0.059326171875 , 1.0546875 , 12.7448107448 , 6.1474969475 , -110.654945055 , -4.5166015625 , 4.65393066406 , -1.27410888672 
2018/05/16 11:36:15.980493 , -0.0185546875 , -0.001220703125 , 1.03247070312 , 13.3445665446 , 7.34700854701 , -110.505006105 , -4.06646728516 , 4.59289550781 , 0.274658203125 
2018/05/16 11:36:16.273296 , -0.0185546875 , -0.001220703125 , 1.03247070312 , 13.3445665446 , 7.34700854701 , -110.505006105 , -4.06646728516 , 4.59289550781 , 0.274658203125 
2018/05/16 11:36:16.565467 , -0.0185546875 , -0.001220703125 , 1.03247070312 , 13.3445665446 , 7.34700854701 , -110.505006105 , -4.06646728516 , 4.59289550781 , 0.274658203125 
2018/05/16 11:36:16.857971 , -0.0185546875 , -0.001220703125 , 1.03247070312 , 13.0446886447 , 7.49694749695 , -112.754090354 , -3.89862060547 , 3.45611572266 , 0.274658203125 
2018/05/16 11:36:17.150508 , -0.0205078125 , 0.009033203125 , 1.03686523438 , 13.0446886447 , 7.49694749695 , -112.754090354 , -3.89862060547 , 3.45611572266 , 0.274658203125 
2018/05/16 11:36:17.443137 , -0.0205078125 , 0.009033203125 , 1.03686523438 , 13.0446886447 , 7.49694749695 , -112.754090354 , -3.89862060547 , 3.45611572266 , 0.274658203125 
2018/05/16 11:36:17.735645 , -0.0205078125 , 0.009033203125 , 1.03686523438 , 13.0446886447 , 7.49694749695 , -112.754090354 , -3.89862060547 , 3.45611572266 , 0.274658203125 
2018/05/16 11:36:18.028106 , 0.0498046875 , 0.08642578125 , 1.01977539062 , 13.4945054945 , 6.44737484737 , -110.355067155 , -5.30242919922 , 3.24249267578 , -1.40380859375 
2018/05/16 11:36:18.320490 , 0.0498046875 , 0.08642578125 , 1.01977539062 , 13.4945054945 , 6.44737484737 , -110.355067155 , -5.30242919922 , 3.24249267578 , -1.40380859375 
2018/05/16 11:36:18.613108 , 0.0498046875 , 0.08642578125 , 1.01977539062 , 13.4945054945 , 6.44737484737 , -110.355067155 , -5.30242919922 , 3.24249267578 , -1.40380859375 
2018/05/16 11:36:18.905399 , 0.0498046875 , 0.08642578125 , 1.01977539062 , 13.3445665446 , 7.04713064713 , -110.205128205 , -4.71496582031 , 4.13513183594 , 0.404357910156 
2018/05/16 11:36:19.198088 , 0.0185546875 , -0.026611328125 , 1.060546875 , 13.3445665446 , 7.04713064713 , -110.205128205 , -4.71496582031 , 4.13513183594 , 0.404357910156 
2018/05/16 11:36:19.490371 , 0.0185546875 , -0.026611328125 , 1.060546875 , 13.3445665446 , 7.04713064713 , -110.205128205 , -4.71496582031 , 4.13513183594 , 0.404357910156 
2018/05/16 11:36:19.783021 , 0.0185546875 , -0.026611328125 , 1.060546875 , 13.3445665446 , 7.04713064713 , -110.205128205 , -3.86810302734 , 5.31768798828 , -1.53350830078 
2018/05/16 11:36:20.075485 , -0.020263671875 , 0.036376953125 , 1.00341796875 , 11.6952380952 , 5.69768009768 , -111.404639805 , -3.86810302734 , 5.31768798828 , -1.53350830078 
2018/05/16 11:36:20.367979 , -0.020263671875 , 0.036376953125 , 1.00341796875 , 11.6952380952 , 5.69768009768 , -111.404639805 , -3.86810302734 , 5.31768798828 , -1.53350830078 
2018/05/16 11:36:20.660494 , -0.020263671875 , 0.036376953125 , 1.00341796875 , 11.6952380952 , 5.69768009768 , -111.404639805 , -3.86810302734 , 5.31768798828 , -1.53350830078 
2018/05/16 11:36:20.953044 , -0.006591796875 , 0.060302734375 , 1.0556640625 , 13.3445665446 , 7.34700854701 , -111.554578755 , -1.86920166016 , 3.61633300781 , -1.99127197266 
2018/05/16 11:36:21.245429 , -0.006591796875 , 0.060302734375 , 1.0556640625 , 13.3445665446 , 7.34700854701 , -111.554578755 , -1.86920166016 , 3.61633300781 , -1.99127197266 
2018/05/16 11:36:21.537957 , -0.006591796875 , 0.060302734375 , 1.0556640625 , 13.3445665446 , 7.34700854701 , -111.554578755 , -1.86920166016 , 3.61633300781 , -1.99127197266 
2018/05/16 11:36:21.830333 , -0.006591796875 , 0.060302734375 , 1.0556640625 , 13.3445665446 , 7.34700854701 , -111.554578755 , -5.43212890625 , 4.69207763672 , -0.930786132812 
2018/05/16 11:36:22.122983 , 0.027587890625 , -0.002685546875 , 0.974365234375 , 11.9951159951 , 5.69768009768 , -110.654945055 , -5.43212890625 , 4.69207763672 , -0.930786132812 
2018/05/16 11:36:22.415311 , 0.027587890625 , -0.002685546875 , 0.974365234375 , 11.9951159951 , 5.69768009768 , -110.654945055 , -5.43212890625 , 4.69207763672 , -0.930786132812 
2018/05/16 11:36:22.707895 , 0.027587890625 , -0.002685546875 , 0.974365234375 , 11.9951159951 , 5.69768009768 , -110.654945055 , -5.43212890625 , 4.69207763672 , -0.930786132812 
2018/05/16 11:36:23.000268 , 0.04248046875 , 0.04296875 , 1.03466796875 , 11.3953601954 , 7.49694749695 , -112.454212454 , -3.97491455078 , 3.47137451172 , -1.61743164062 
2018/05/16 11:36:23.292987 , 0.04248046875 , 0.04296875 , 1.03466796875 , 11.3953601954 , 7.49694749695 , -112.454212454 , -3.97491455078 , 3.47137451172 , -1.61743164062 
2018/05/16 11:36:23.585265 , 0.04248046875 , 0.04296875 , 1.03466796875 , 11.3953601954 , 7.49694749695 , -112.454212454 , -3.97491455078 , 3.47137451172 , -1.61743164062 
2018/05/16 11:36:23.877761 , 0.04248046875 , 0.04296875 , 1.03466796875 , 10.3457875458 , 7.49694749695 , -112.454212454 , -5.35583496094 , 5.69915771484 , 1.28173828125 
2018/05/16 11:36:24.170350 , 0.048828125 , -0.008056640625 , 1.05029296875 , 10.3457875458 , 7.49694749695 , -112.454212454 , -5.35583496094 , 5.69915771484 , 1.28173828125 
2018/05/16 11:36:24.462862 , 0.048828125 , -0.008056640625 , 1.05029296875 , 10.3457875458 , 7.49694749695 , -112.454212454 , -5.35583496094 , 5.69915771484 , 1.28173828125 
2018/05/16 11:36:24.755193 , 0.048828125 , -0.008056640625 , 1.05029296875 , 10.3457875458 , 7.49694749695 , -112.454212454 , -5.44738769531 , 4.05883789062 , 0.175476074219 
2018/05/16 11:36:25.047748 , -0.009521484375 , 0.029296875 , 0.9970703125 , 13.0446886447 , 5.69768009768 , -111.704517705 , -5.44738769531 , 4.05883789062 , 0.175476074219 
2018/05/16 11:36:25.340216 , -0.009521484375 , 0.029296875 , 0.9970703125 , 13.0446886447 , 5.69768009768 , -111.704517705 , -5.44738769531 , 4.05883789062 , 0.175476074219 
2018/05/16 11:36:25.632851 , -0.009521484375 , 0.029296875 , 0.9970703125 , 13.0446886447 , 5.69768009768 , -111.704517705 , -5.44738769531 , 4.05883789062 , 0.175476074219 
2018/05/16 11:36:25.925203 , -0.009521484375 , 0.029296875 , 0.9970703125 , 12.294993895 , 7.64688644689 , -111.554578755 , -3.37219238281 , 4.92858886719 , 0.984191894531 
2018/05/16 11:36:26.217853 , -0.0556640625 , -0.0087890625 , 1.04296875 , 12.294993895 , 7.64688644689 , -111.554578755 , -3.37219238281 , 4.92858886719 , 0.984191894531 
2018/05/16 11:36:26.510191 , -0.0556640625 , -0.0087890625 , 1.04296875 , 12.294993895 , 7.64688644689 , -111.554578755 , -3.37219238281 , 4.92858886719 , 0.984191894531 
2018/05/16 11:36:26.802835 , -0.0556640625 , -0.0087890625 , 1.04296875 , 12.294993895 , 7.64688644689 , -111.554578755 , -5.03540039062 , 5.19561767578 , -0.175476074219 
2018/05/16 11:36:27.095383 , 0.013916015625 , 0.048583984375 , 1.00927734375 , 13.0446886447 , 6.44737484737 , -110.654945055 , -5.03540039062 , 5.19561767578 , -0.175476074219 
2018/05/16 11:36:27.387717 , 0.013916015625 , 0.048583984375 , 1.00927734375 , 13.0446886447 , 6.44737484737 , -110.654945055 , -5.03540039062 , 5.19561767578 , -0.175476074219 
2018/05/16 11:36:27.680103 , 0.013916015625 , 0.048583984375 , 1.00927734375 , 13.0446886447 , 6.44737484737 , -110.654945055 , -5.03540039062 , 5.19561767578 , -0.175476074219 
2018/05/16 11:36:27.972636 , 0.00537109375 , 0.066650390625 , 1.08447265625 , 11.8451770452 , 6.29743589744 , -113.203907204 , -4.34112548828 , 4.50134277344 , -1.02996826172 
2018/05/16 11:36:28.265165 , 0.00537109375 , 0.066650390625 , 1.08447265625 , 11.8451770452 , 6.29743589744 , -113.203907204 , -4.34112548828 , 4.50134277344 , -1.02996826172 
2018/05/16 11:36:28.557572 , 0.00537109375 , 0.066650390625 , 1.08447265625 , 11.8451770452 , 6.29743589744 , -113.203907204 , -4.34112548828 , 4.50134277344 , -1.02996826172 
2018/05/16 11:36:28.850090 , 0.00537109375 , 0.066650390625 , 1.08447265625 , 13.0446886447 , 7.79682539683 , -113.053968254 , -4.29534912109 , 4.80651855469 , -0.785827636719 
2018/05/16 11:36:29.142845 , -0.000244140625 , 0.044189453125 , 0.99267578125 , 13.0446886447 , 7.79682539683 , -113.053968254 , -4.29534912109 , 4.80651855469 , -0.785827636719 
2018/05/16 11:36:29.435103 , -0.000244140625 , 0.044189453125 , 0.99267578125 , 13.0446886447 , 7.79682539683 , -113.053968254 , -4.29534912109 , 4.80651855469 , -0.785827636719 
2018/05/16 11:36:29.727628 , -0.000244140625 , 0.044189453125 , 0.99267578125 , 13.0446886447 , 7.79682539683 , -113.053968254 , -4.29534912109 , 4.80651855469 , -0.785827636719 
2018/05/16 11:36:30.020149 , 0.011474609375 , -0.000244140625 , 1.04858398438 , 12.4449328449 , 7.79682539683 , -112.004395604 , -3.95202636719 , 3.05938720703 , -1.3427734375 
2018/05/16 11:36:30.312567 , 0.011474609375 , -0.000244140625 , 1.04858398438 , 12.4449328449 , 7.79682539683 , -112.004395604 , -3.95202636719 , 3.05938720703 , -1.3427734375 
2018/05/16 11:36:30.604998 , 0.011474609375 , -0.000244140625 , 1.04858398438 , 12.4449328449 , 7.79682539683 , -112.004395604 , -3.95202636719 , 3.05938720703 , -1.3427734375 
2018/05/16 11:36:30.897527 , 0.011474609375 , -0.000244140625 , 1.04858398438 , 10.6456654457 , 7.49694749695 , -111.404639805 , -3.09753417969 , 4.84466552734 , -0.938415527344 
2018/05/16 11:36:31.190050 , 0.0224609375 , 0.060546875 , 1.02685546875 , 10.6456654457 , 7.49694749695 , -111.404639805 , -3.09753417969 , 4.84466552734 , -0.938415527344 
2018/05/16 11:36:31.482501 , 0.0224609375 , 0.060546875 , 1.02685546875 , 10.6456654457 , 7.49694749695 , -111.404639805 , -3.09753417969 , 4.84466552734 , -0.938415527344 
2018/05/16 11:36:31.775001 , 0.0224609375 , 0.060546875 , 1.02685546875 , 10.6456654457 , 7.49694749695 , -111.404639805 , -4.64630126953 , 4.49371337891 , -0.587463378906 
2018/05/16 11:36:32.067555 , -0.004150390625 , 0.049560546875 , 1.080078125 , 12.8947496947 , 6.59731379731 , -111.554578755 , -4.64630126953 , 4.49371337891 , -0.587463378906 
2018/05/16 11:36:32.360122 , -0.004150390625 , 0.049560546875 , 1.080078125 , 12.8947496947 , 6.59731379731 , -111.554578755 , -4.64630126953 , 4.49371337891 , -0.587463378906 
2018/05/16 11:36:32.652466 , -0.004150390625 , 0.049560546875 , 1.080078125 , 12.8947496947 , 6.59731379731 , -111.554578755 , -4.64630126953 , 4.49371337891 , -0.587463378906 
2018/05/16 11:36:32.944985 , -0.04150390625 , 0.047119140625 , 1.04638671875 , 12.7448107448 , 6.44737484737 , -111.704517705 , -3.97491455078 , 2.73895263672 , 0.808715820312 
2018/05/16 11:36:33.237516 , -0.04150390625 , 0.047119140625 , 1.04638671875 , 12.7448107448 , 6.44737484737 , -111.704517705 , -3.97491455078 , 2.73895263672 , 0.808715820312 
2018/05/16 11:36:33.530052 , -0.04150390625 , 0.047119140625 , 1.04638671875 , 12.7448107448 , 6.44737484737 , -111.704517705 , -3.97491455078 , 2.73895263672 , 0.808715820312 
2018/05/16 11:36:33.822484 , -0.04150390625 , 0.047119140625 , 1.04638671875 , 13.0446886447 , 7.49694749695 , -112.454212454 , -3.92913818359 , 4.13513183594 , 0.00762939453125 
2018/05/16 11:36:34.163886 , 0.02685546875 , 0.019775390625 , 1.02416992188 , 13.0446886447 , 7.49694749695 , -112.454212454 , -3.92913818359 , 4.13513183594 , 0.00762939453125 
2018/05/16 11:36:34.456202 , 0.02685546875 , 0.019775390625 , 1.02416992188 , 13.0446886447 , 7.49694749695 , -112.454212454 , -3.92913818359 , 4.13513183594 , 0.00762939453125 
2018/05/16 11:36:34.748697 , 0.02685546875 , 0.019775390625 , 1.02416992188 , 13.0446886447 , 7.49694749695 , -112.454212454 , -3.46374511719 , 3.82232666016 , 0.930786132812 
2018/05/16 11:36:35.041245 , -0.010009765625 , 0.0068359375 , 1.02465820312 , 13.0446886447 , 6.44737484737 , -110.355067155 , -3.46374511719 , 3.82232666016 , 0.930786132812 
2018/05/16 11:36:35.333729 , -0.010009765625 , 0.0068359375 , 1.02465820312 , 13.0446886447 , 6.44737484737 , -110.355067155 , -3.46374511719 , 3.82232666016 , 0.930786132812 
2018/05/16 11:36:35.626176 , -0.010009765625 , 0.0068359375 , 1.02465820312 , 13.0446886447 , 6.44737484737 , -110.355067155 , -3.46374511719 , 3.82232666016 , 0.930786132812 
2018/05/16 11:36:35.918667 , -0.010009765625 , 0.0068359375 , 1.02465820312 , 12.294993895 , 6.29743589744 , -111.254700855 , -4.18090820312 , 5.08117675781 , 0.717163085938 
2018/05/16 11:36:36.211327 , -0.049072265625 , -0.013916015625 , 1.07153320312 , 12.294993895 , 6.29743589744 , -111.254700855 , -4.18090820312 , 5.08117675781 , 0.717163085938 
2018/05/16 11:36:36.503643 , -0.049072265625 , -0.013916015625 , 1.07153320312 , 12.294993895 , 6.29743589744 , -111.254700855 , -4.18090820312 , 5.08117675781 , 0.717163085938 
2018/05/16 11:36:36.796194 , -0.049072265625 , -0.013916015625 , 1.07153320312 , 12.294993895 , 6.29743589744 , -111.254700855 , -3.33404541016 , 6.16455078125 , 0.625610351562 
2018/05/16 11:36:37.088858 , -0.030517578125 , -0.0205078125 , 1.05810546875 , 11.8451770452 , 7.04713064713 , -111.554578755 , -3.33404541016 , 6.16455078125 , 0.625610351562 
2018/05/16 11:36:37.381119 , -0.030517578125 , -0.0205078125 , 1.05810546875 , 11.8451770452 , 7.04713064713 , -111.554578755 , -3.33404541016 , 6.16455078125 , 0.625610351562 
2018/05/16 11:36:37.673843 , -0.030517578125 , -0.0205078125 , 1.05810546875 , 11.8451770452 , 7.04713064713 , -111.554578755 , -3.33404541016 , 6.16455078125 , 0.625610351562 
2018/05/16 11:36:37.966116 , 0.046875 , 0.094482421875 , 1.02294921875 , 12.4449328449 , 7.49694749695 , -111.404639805 , -4.00543212891 , 6.12640380859 , -0.274658203125 
2018/05/16 11:36:38.258636 , 0.046875 , 0.094482421875 , 1.02294921875 , 12.4449328449 , 7.49694749695 , -111.404639805 , -4.00543212891 , 6.12640380859 , -0.274658203125 
2018/05/16 11:36:38.551118 , 0.046875 , 0.094482421875 , 1.02294921875 , 12.4449328449 , 7.49694749695 , -111.404639805 , -4.00543212891 , 6.12640380859 , -0.274658203125 
2018/05/16 11:36:38.843673 , 0.046875 , 0.094482421875 , 1.02294921875 , 10.7956043956 , 6.29743589744 , -111.554578755 , -4.48608398438 , 4.19616699219 , -0.205993652344 
2018/05/16 11:36:39.136260 , -0.06591796875 , 0.014892578125 , 1.03369140625 , 10.7956043956 , 6.29743589744 , -111.554578755 , -4.48608398438 , 4.19616699219 , -0.205993652344 
2018/05/16 11:36:39.428709 , -0.06591796875 , 0.014892578125 , 1.03369140625 , 10.7956043956 , 6.29743589744 , -111.554578755 , -4.48608398438 , 4.19616699219 , -0.205993652344 
2018/05/16 11:36:39.721045 , -0.06591796875 , 0.014892578125 , 1.03369140625 , 10.7956043956 , 6.29743589744 , -111.554578755 , -4.48608398438 , 4.19616699219 , -0.205993652344 
2018/05/16 11:36:40.013576 , 0.032958984375 , -0.0029296875 , 1.01806640625 , 10.0459096459 , 6.59731379731 , -111.854456654 , -4.48608398438 , 4.21905517578 , -0.701904296875 
2018/05/16 11:36:40.306257 , 0.032958984375 , -0.0029296875 , 1.01806640625 , 10.0459096459 , 6.59731379731 , -111.854456654 , -4.48608398438 , 4.21905517578 , -0.701904296875 
2018/05/16 11:36:40.598692 , 0.032958984375 , -0.0029296875 , 1.01806640625 , 10.0459096459 , 6.59731379731 , -111.854456654 , -4.48608398438 , 4.21905517578 , -0.701904296875 
2018/05/16 11:36:40.891035 , 0.032958984375 , -0.0029296875 , 1.01806640625 , 12.8947496947 , 7.34700854701 , -110.804884005 , -4.57000732422 , 5.14984130859 , 0.770568847656 
2018/05/16 11:36:41.183660 , 0.010498046875 , 0.092041015625 , 0.97314453125 , 12.8947496947 , 7.34700854701 , -110.804884005 , -4.57000732422 , 5.14984130859 , 0.770568847656 
2018/05/16 11:36:41.476032 , 0.010498046875 , 0.092041015625 , 0.97314453125 , 12.8947496947 , 7.34700854701 , -110.804884005 , -4.57000732422 , 5.14984130859 , 0.770568847656 
2018/05/16 11:36:41.768515 , 0.010498046875 , 0.092041015625 , 0.97314453125 , 12.8947496947 , 7.34700854701 , -110.804884005 , -2.96783447266 , 4.82177734375 , -0.404357910156 
2018/05/16 11:36:42.061241 , 0.03857421875 , 0.03564453125 , 1.0478515625 , 12.8947496947 , 7.34700854701 , -110.804884005 , -2.96783447266 , 4.82177734375 , -0.404357910156 
2018/05/16 11:36:42.353486 , 0.03857421875 , 0.03564453125 , 1.0478515625 , 12.8947496947 , 7.34700854701 , -110.804884005 , -2.96783447266 , 4.82177734375 , -0.404357910156 
2018/05/16 11:36:42.646065 , 0.03857421875 , 0.03564453125 , 1.0478515625 , 12.8947496947 , 7.34700854701 , -110.804884005 , -2.96783447266 , 4.82177734375 , -0.404357910156 
2018/05/16 11:36:42.938538 , 0.015625 , 0.03759765625 , 1.05249023438 , 11.6952380952 , 6.1474969475 , -111.704517705 , -4.53948974609 , 3.44085693359 , 1.12915039062 
2018/05/16 11:36:43.231075 , 0.015625 , 0.03759765625 , 1.05249023438 , 11.6952380952 , 6.1474969475 , -111.704517705 , -4.53948974609 , 3.44085693359 , 1.12915039062 
2018/05/16 11:36:43.523543 , 0.015625 , 0.03759765625 , 1.05249023438 , 11.6952380952 , 6.1474969475 , -111.704517705 , -4.53948974609 , 3.44085693359 , 1.12915039062 
2018/05/16 11:36:43.816111 , 0.015625 , 0.03759765625 , 1.05249023438 , 11.6952380952 , 6.1474969475 , -111.704517705 , -5.58471679688 , 4.45556640625 , 0.564575195312 
2018/05/16 11:36:44.108660 , 0.0244140625 , 0.036376953125 , 1.0400390625 , 11.6952380952 , 6.1474969475 , -111.704517705 , -5.58471679688 , 4.45556640625 , 0.564575195312 
2018/05/16 11:36:44.401163 , 0.0244140625 , 0.036376953125 , 1.0400390625 , 11.6952380952 , 6.1474969475 , -111.704517705 , -5.58471679688 , 4.45556640625 , 0.564575195312 
2018/05/16 11:36:44.693479 , 0.0244140625 , 0.036376953125 , 1.0400390625 , 11.6952380952 , 6.1474969475 , -111.704517705 , -5.58471679688 , 4.45556640625 , 0.564575195312 
2018/05/16 11:36:44.986029 , -0.013916015625 , -0.00830078125 , 1.04516601562 , 12.5948717949 , 7.04713064713 , -111.254700855 , -3.51715087891 , 5.48553466797 , 0.663757324219 
2018/05/16 11:36:45.278491 , -0.013916015625 , -0.00830078125 , 1.04516601562 , 12.5948717949 , 7.04713064713 , -111.254700855 , -3.51715087891 , 5.48553466797 , 0.663757324219 
2018/05/16 11:36:45.570887 , -0.013916015625 , -0.00830078125 , 1.04516601562 , 12.5948717949 , 7.04713064713 , -111.254700855 , -3.51715087891 , 5.48553466797 , 0.663757324219 
2018/05/16 11:36:45.863401 , -0.013916015625 , -0.00830078125 , 1.04516601562 , 12.5948717949 , 7.04713064713 , -111.254700855 , -3.28826904297 , 5.26428222656 , -0.450134277344 
2018/05/16 11:36:46.156033 , -0.001953125 , 0.02392578125 , 1.03881835938 , 12.5948717949 , 7.04713064713 , -111.254700855 , -3.28826904297 , 5.26428222656 , -0.450134277344 
2018/05/16 11:36:46.448436 , -0.001953125 , 0.02392578125 , 1.03881835938 , 12.5948717949 , 7.04713064713 , -111.254700855 , -3.28826904297 , 5.26428222656 , -0.450134277344 
2018/05/16 11:36:46.740897 , -0.001953125 , 0.02392578125 , 1.03881835938 , 12.5948717949 , 7.04713064713 , -111.254700855 , -3.20434570312 , 5.615234375 , 1.23596191406 
2018/05/16 11:36:47.033543 , 0.041748046875 , 0.054443359375 , 0.968505859375 , 11.5452991453 , 7.34700854701 , -111.854456654 , -3.20434570312 , 5.615234375 , 1.23596191406 
2018/05/16 11:36:47.326078 , 0.041748046875 , 0.054443359375 , 0.968505859375 , 11.5452991453 , 7.34700854701 , -111.854456654 , -3.20434570312 , 5.615234375 , 1.23596191406 
2018/05/16 11:36:47.618388 , 0.041748046875 , 0.054443359375 , 0.968505859375 , 11.5452991453 , 7.34700854701 , -111.854456654 , -3.20434570312 , 5.615234375 , 1.23596191406 
2018/05/16 11:36:47.910981 , 0.041748046875 , 0.054443359375 , 0.968505859375 , 11.5452991453 , 7.34700854701 , -111.854456654 , -4.22668457031 , 5.05065917969 , -0.808715820312 
2018/05/16 11:36:48.203497 , 0.069091796875 , -0.052734375 , 1.05859375 , 11.5452991453 , 7.34700854701 , -111.854456654 , -4.22668457031 , 5.05065917969 , -0.808715820312 
2018/05/16 11:36:48.496000 , 0.069091796875 , -0.052734375 , 1.05859375 , 11.5452991453 , 7.34700854701 , -111.854456654 , -4.22668457031 , 5.05065917969 , -0.808715820312 
2018/05/16 11:36:48.788364 , 0.069091796875 , -0.052734375 , 1.05859375 , 11.5452991453 , 7.34700854701 , -111.854456654 , -5.48553466797 , 2.96783447266 , 0.205993652344 
2018/05/16 11:36:49.080885 , 0.03564453125 , 0.046142578125 , 1.04272460938 , 11.5452991453 , 7.34700854701 , -111.854456654 , -5.48553466797 , 2.96783447266 , 0.205993652344 
2018/05/16 11:36:49.373430 , 0.03564453125 , 0.046142578125 , 1.04272460938 , 11.5452991453 , 7.34700854701 , -111.854456654 , -5.48553466797 , 2.96783447266 , 0.205993652344 
2018/05/16 11:36:49.666007 , 0.03564453125 , 0.046142578125 , 1.04272460938 , 11.5452991453 , 7.34700854701 , -111.854456654 , -5.48553466797 , 2.96783447266 , 0.205993652344 
2018/05/16 11:36:49.958344 , 0.072998046875 , 0.017822265625 , 1.00854492188 , 10.9455433455 , 6.1474969475 , -110.654945055 , -2.73895263672 , 4.94384765625 , -0.640869140625 
2018/05/16 11:36:50.250973 , 0.072998046875 , 0.017822265625 , 1.00854492188 , 10.9455433455 , 6.1474969475 , -110.654945055 , -2.73895263672 , 4.94384765625 , -0.640869140625 
2018/05/16 11:36:50.543346 , 0.072998046875 , 0.017822265625 , 1.00854492188 , 10.9455433455 , 6.1474969475 , -110.654945055 , -2.73895263672 , 4.94384765625 , -0.640869140625 
2018/05/16 11:36:50.835921 , 0.072998046875 , 0.017822265625 , 1.00854492188 , 12.7448107448 , 7.19706959707 , -111.404639805 , -4.11987304688 , 4.03594970703 , -0.251770019531 
2018/05/16 11:36:51.128466 , 0.00537109375 , -0.015625 , 1.03393554688 , 12.7448107448 , 7.19706959707 , -111.404639805 , -4.11987304688 , 4.03594970703 , -0.251770019531 
2018/05/16 11:36:51.420903 , 0.00537109375 , -0.015625 , 1.03393554688 , 12.7448107448 , 7.19706959707 , -111.404639805 , -4.11987304688 , 4.03594970703 , -0.251770019531 
2018/05/16 11:36:51.713306 , 0.00537109375 , -0.015625 , 1.03393554688 , 12.7448107448 , 7.19706959707 , -111.404639805 , -4.11987304688 , 4.03594970703 , -0.251770019531 
2018/05/16 11:36:52.005796 , -0.004638671875 , -0.019775390625 , 1.048828125 , 12.7448107448 , 7.19706959707 , -111.404639805 , -4.69207763672 , 4.25720214844 , -0.198364257812 
2018/05/16 11:36:52.298349 , -0.004638671875 , -0.019775390625 , 1.048828125 , 12.7448107448 , 7.19706959707 , -111.404639805 , -4.69207763672 , 4.25720214844 , -0.198364257812 
2018/05/16 11:36:52.590768 , -0.004638671875 , -0.019775390625 , 1.048828125 , 12.7448107448 , 7.19706959707 , -111.404639805 , -4.69207763672 , 4.25720214844 , -0.198364257812 
2018/05/16 11:36:52.883322 , -0.004638671875 , -0.019775390625 , 1.048828125 , 12.7448107448 , 7.19706959707 , -111.404639805 , -4.35638427734 , 5.25665283203 , 0.617980957031 
2018/05/16 11:36:53.175997 , -0.04052734375 , 0.058837890625 , 1.00854492188 , 12.7448107448 , 7.19706959707 , -111.404639805 , -4.35638427734 , 5.25665283203 , 0.617980957031 
2018/05/16 11:36:53.516995 , -0.04052734375 , 0.058837890625 , 1.00854492188 , 12.7448107448 , 7.19706959707 , -111.404639805 , -4.35638427734 , 5.25665283203 , 0.617980957031 
