Connecting to 24:71:89:C1:0D:07
time ,acc-x,acc-y,acc-z ,mag-x,mag-y,mag-z ,gyr-x,gyr-y,gyr-z 
2018/05/08 00:13:44.159235 , 0.0 , 0.0 , 0.0 , 0.0 , 0.0 , 0.0 , 0.0 , 0.0 , 0.0 
2018/05/08 00:13:44.413062 , 0.0 , 0.0 , 0.0 , 0.0 , 0.0 , 0.0 , 0.0 , 0.0 , 0.0 
2018/05/08 00:13:44.705787 , 0.0 , 0.0 , 0.0 , 0.0 , 0.0 , 0.0 , -5.59234619141 , 6.14166259766 , -1.953125 
2018/05/08 00:13:44.998205 , -0.577392578125 , -0.52197265625 , 0.684814453125 , 58.4761904762 , 17.3929181929 , -54.127960928 , -5.59234619141 , 6.14166259766 , -1.953125 
2018/05/08 00:13:45.290749 , -0.577392578125 , -0.52197265625 , 0.684814453125 , 58.4761904762 , 17.3929181929 , -54.127960928 , -5.59234619141 , 6.14166259766 , -1.953125 
2018/05/08 00:13:45.583330 , -0.577392578125 , -0.52197265625 , 0.684814453125 , 58.4761904762 , 17.3929181929 , -54.127960928 , -5.59234619141 , 6.14166259766 , -1.953125 
2018/05/08 00:13:45.875921 , -0.577392578125 , -0.52197265625 , 0.684814453125 , 55.3274725275 , 16.3433455433 , -51.7289377289 , -3.86047363281 , 5.75256347656 , -0.648498535156 
2018/05/08 00:13:46.168345 , -0.496337890625 , -0.451416015625 , 0.673095703125 , 55.3274725275 , 16.3433455433 , -51.7289377289 , -3.86047363281 , 5.75256347656 , -0.648498535156 
2018/05/08 00:13:46.460937 , -0.496337890625 , -0.451416015625 , 0.673095703125 , 55.3274725275 , 16.3433455433 , -51.7289377289 , -3.86047363281 , 5.75256347656 , -0.648498535156 
2018/05/08 00:13:46.753378 , -0.496337890625 , -0.451416015625 , 0.673095703125 , 55.3274725275 , 16.3433455433 , -51.7289377289 , -4.01306152344 , 4.35638427734 , -1.27410888672 
2018/05/08 00:13:47.046004 , -0.572265625 , -0.467529296875 , 0.6904296875 , 55.4774114774 , 16.7931623932 , -51.578998779 , -4.01306152344 , 4.35638427734 , -1.27410888672 
2018/05/08 00:13:47.338503 , -0.572265625 , -0.467529296875 , 0.6904296875 , 55.4774114774 , 16.7931623932 , -51.578998779 , -4.01306152344 , 4.35638427734 , -1.27410888672 
2018/05/08 00:13:47.630695 , -0.572265625 , -0.467529296875 , 0.6904296875 , 55.4774114774 , 16.7931623932 , -51.578998779 , -4.01306152344 , 4.35638427734 , -1.27410888672 
2018/05/08 00:13:47.923558 , -0.5888671875 , -0.453369140625 , 0.668701171875 , 55.7772893773 , 16.1934065934 , -51.2791208791 , -6.09588623047 , 5.16510009766 , -0.450134277344 
2018/05/08 00:13:51.287774 , -0.56640625 , -0.431884765625 , 0.702392578125 , 55.7772893773 , 16.1934065934 , -51.2791208791 , -6.09588623047 , 5.16510009766 , -0.450134277344 
2018/05/08 00:13:51.579982 , -0.56640625 , -0.431884765625 , 0.702392578125 , 55.7772893773 , 16.1934065934 , -51.2791208791 , -6.09588623047 , 5.16510009766 , -0.450134277344 
2018/05/08 00:13:51.872667 , -0.56640625 , -0.431884765625 , 0.702392578125 , 56.526984127 , 18.2925518926 , -51.8788766789 , -5.37109375 , 5.80596923828 , -0.747680664062 
2018/05/08 00:13:52.165033 , -0.55126953125 , -0.502685546875 , 0.6865234375 , 56.526984127 , 18.2925518926 , -51.8788766789 , -5.37109375 , 5.80596923828 , -0.747680664062 
2018/05/08 00:13:52.457667 , -0.55126953125 , -0.502685546875 , 0.6865234375 , 56.526984127 , 18.2925518926 , -51.8788766789 , -5.37109375 , 5.80596923828 , -0.747680664062 
2018/05/08 00:13:52.750374 , -0.55126953125 , -0.502685546875 , 0.6865234375 , 56.526984127 , 18.2925518926 , -51.8788766789 , -5.11169433594 , 6.45446777344 , -0.42724609375 
2018/05/08 00:13:53.042730 , -0.524169921875 , -0.473388671875 , 0.7197265625 , 56.2271062271 , 17.242979243 , -51.8788766789 , -5.11169433594 , 6.45446777344 , -0.42724609375 
2018/05/08 00:13:53.335374 , -0.524169921875 , -0.473388671875 , 0.7197265625 , 56.2271062271 , 17.242979243 , -51.8788766789 , -5.11169433594 , 6.45446777344 , -0.42724609375 
2018/05/08 00:13:53.627775 , -0.524169921875 , -0.473388671875 , 0.7197265625 , 56.2271062271 , 17.242979243 , -51.8788766789 , -5.11169433594 , 6.45446777344 , -0.42724609375 
2018/05/08 00:13:53.920350 , -0.550537109375 , -0.47607421875 , 0.696533203125 , 55.9272283272 , 18.1426129426 , -51.4290598291 , -4.85992431641 , 4.31060791016 , -0.572204589844 
2018/05/08 00:13:54.212702 , -0.550537109375 , -0.47607421875 , 0.696533203125 , 55.9272283272 , 18.1426129426 , -51.4290598291 , -4.85992431641 , 4.31060791016 , -0.572204589844 
2018/05/08 00:13:54.505056 , -0.550537109375 , -0.47607421875 , 0.696533203125 , 55.9272283272 , 18.1426129426 , -51.4290598291 , -4.85992431641 , 4.31060791016 , -0.572204589844 
2018/05/08 00:13:54.797284 , -0.550537109375 , -0.47607421875 , 0.696533203125 , 54.8776556777 , 16.3433455433 , -51.4290598291 , -2.45666503906 , 5.38635253906 , 1.18255615234 
2018/05/08 00:13:55.090471 , -0.575927734375 , -0.46826171875 , 0.701904296875 , 54.8776556777 , 16.3433455433 , -51.4290598291 , -2.45666503906 , 5.38635253906 , 1.18255615234 
2018/05/08 00:13:55.383676 , -0.575927734375 , -0.46826171875 , 0.701904296875 , 54.8776556777 , 16.3433455433 , -51.4290598291 , -2.45666503906 , 5.38635253906 , 1.18255615234 
2018/05/08 00:13:55.675398 , -0.575927734375 , -0.46826171875 , 0.701904296875 , 54.8776556777 , 16.3433455433 , -51.4290598291 , -2.45666503906 , 5.38635253906 , 1.18255615234 
2018/05/08 00:13:55.968026 , -0.521728515625 , -0.428955078125 , 0.706787109375 , 55.7772893773 , 17.8427350427 , -50.8293040293 , -5.11932373047 , 4.79888916016 , 1.54876708984 
2018/05/08 00:13:56.260437 , -0.521728515625 , -0.428955078125 , 0.706787109375 , 55.7772893773 , 17.8427350427 , -50.8293040293 , -5.11932373047 , 4.79888916016 , 1.54876708984 
2018/05/08 00:13:56.553020 , -0.521728515625 , -0.428955078125 , 0.706787109375 , 55.7772893773 , 17.8427350427 , -50.8293040293 , -5.11932373047 , 4.79888916016 , 1.54876708984 
2018/05/08 00:13:56.845724 , -0.521728515625 , -0.428955078125 , 0.706787109375 , 54.7277167277 , 15.7435897436 , -51.8788766789 , -3.48663330078 , 5.70678710938 , -1.59454345703 
2018/05/08 00:13:57.138094 , -0.5458984375 , -0.482666015625 , 0.723388671875 , 54.7277167277 , 15.7435897436 , -51.8788766789 , -3.48663330078 , 5.70678710938 , -1.59454345703 
2018/05/08 00:13:57.430455 , -0.5458984375 , -0.482666015625 , 0.723388671875 , 54.7277167277 , 15.7435897436 , -51.8788766789 , -3.48663330078 , 5.70678710938 , -1.59454345703 
2018/05/08 00:13:57.723064 , -0.5458984375 , -0.482666015625 , 0.723388671875 , 54.7277167277 , 15.7435897436 , -51.8788766789 , -3.00598144531 , 2.57873535156 , -1.10626220703 
2018/05/08 00:13:58.015463 , -0.533203125 , -0.509521484375 , 0.675537109375 , 54.5777777778 , 16.6432234432 , -50.3794871795 , -3.00598144531 , 2.57873535156 , -1.10626220703 
2018/05/08 00:13:58.308084 , -0.533203125 , -0.509521484375 , 0.675537109375 , 54.5777777778 , 16.6432234432 , -50.3794871795 , -3.00598144531 , 2.57873535156 , -1.10626220703 
2018/05/08 00:13:58.600645 , -0.533203125 , -0.509521484375 , 0.675537109375 , 54.5777777778 , 16.6432234432 , -50.3794871795 , -3.00598144531 , 2.57873535156 , -1.10626220703 
2018/05/08 00:13:58.893142 , -0.603515625 , -0.482421875 , 0.668212890625 , 55.7772893773 , 18.2925518926 , -51.2791208791 , -4.57000732422 , 4.64630126953 , 0.411987304688 
2018/05/08 00:13:59.185835 , -0.603515625 , -0.482421875 , 0.668212890625 , 55.7772893773 , 18.2925518926 , -51.2791208791 , -4.57000732422 , 4.64630126953 , 0.411987304688 
2018/05/08 00:13:59.478305 , -0.603515625 , -0.482421875 , 0.668212890625 , 55.7772893773 , 18.2925518926 , -51.2791208791 , -4.57000732422 , 4.64630126953 , 0.411987304688 
2018/05/08 00:13:59.770758 , -0.603515625 , -0.482421875 , 0.668212890625 , 55.7772893773 , 18.2925518926 , -51.2791208791 , -5.46264648438 , 3.99017333984 , -0.0457763671875 
2018/05/08 00:14:00.063283 , -0.493408203125 , -0.451904296875 , 0.677490234375 , 55.7772893773 , 17.242979243 , -52.1787545788 , -5.46264648438 , 3.99017333984 , -0.0457763671875 
2018/05/08 00:14:00.355923 , -0.493408203125 , -0.451904296875 , 0.677490234375 , 55.7772893773 , 17.242979243 , -52.1787545788 , -5.46264648438 , 3.99017333984 , -0.0457763671875 
2018/05/08 00:14:00.648056 , -0.493408203125 , -0.451904296875 , 0.677490234375 , 55.7772893773 , 17.242979243 , -52.1787545788 , -5.46264648438 , 3.99017333984 , -0.0457763671875 
2018/05/08 00:14:00.940818 , -0.48681640625 , -0.49169921875 , 0.669189453125 , 57.4266178266 , 17.3929181929 , -52.0288156288 , -3.06701660156 , 5.96618652344 , -0.106811523438 
2018/05/08 00:14:01.232968 , -0.48681640625 , -0.49169921875 , 0.669189453125 , 57.4266178266 , 17.3929181929 , -52.0288156288 , -3.06701660156 , 5.96618652344 , -0.106811523438 
2018/05/08 00:14:01.525716 , -0.48681640625 , -0.49169921875 , 0.669189453125 , 57.4266178266 , 17.3929181929 , -52.0288156288 , -3.06701660156 , 5.96618652344 , -0.106811523438 
2018/05/08 00:14:01.818461 , -0.48681640625 , -0.49169921875 , 0.669189453125 , 56.9768009768 , 16.6432234432 , -52.3286935287 , -3.58581542969 , 4.28771972656 , -0.205993652344 
2018/05/08 00:14:02.110870 , -0.6083984375 , -0.473388671875 , 0.6953125 , 56.9768009768 , 16.6432234432 , -52.3286935287 , -3.58581542969 , 4.28771972656 , -0.205993652344 
2018/05/08 00:14:02.403110 , -0.6083984375 , -0.473388671875 , 0.6953125 , 56.9768009768 , 16.6432234432 , -52.3286935287 , -3.58581542969 , 4.28771972656 , -0.205993652344 
2018/05/08 00:14:02.695761 , -0.6083984375 , -0.473388671875 , 0.6953125 , 56.9768009768 , 16.6432234432 , -52.3286935287 , -5.59234619141 , 5.37872314453 , -0.869750976562 
2018/05/08 00:14:02.988473 , -0.54345703125 , -0.454833984375 , 0.681396484375 , 55.6273504274 , 17.6927960928 , -50.9792429792 , -5.59234619141 , 5.37872314453 , -0.869750976562 
2018/05/08 00:14:03.280849 , -0.54345703125 , -0.454833984375 , 0.681396484375 , 55.6273504274 , 17.6927960928 , -50.9792429792 , -5.59234619141 , 5.37872314453 , -0.869750976562 
2018/05/08 00:14:03.573526 , -0.54345703125 , -0.454833984375 , 0.681396484375 , 55.6273504274 , 17.6927960928 , -50.9792429792 , -5.59234619141 , 5.37872314453 , -0.869750976562 
2018/05/08 00:14:03.866056 , -0.54345703125 , -0.454833984375 , 0.681396484375 , 56.6769230769 , 17.093040293 , -50.3794871795 , -4.30297851562 , 5.34057617188 , -1.15203857422 
2018/05/08 00:14:04.158700 , -0.59228515625 , -0.501953125 , 0.703857421875 , 56.6769230769 , 17.093040293 , -50.3794871795 , -4.30297851562 , 5.34057617188 , -1.15203857422 
2018/05/08 00:14:04.451077 , -0.59228515625 , -0.501953125 , 0.703857421875 , 56.6769230769 , 17.093040293 , -50.3794871795 , -4.30297851562 , 5.34057617188 , -1.15203857422 
2018/05/08 00:14:04.743731 , -0.59228515625 , -0.501953125 , 0.703857421875 , 56.6769230769 , 17.093040293 , -50.3794871795 , -3.68499755859 , 4.28771972656 , -1.54876708984 
2018/05/08 00:14:05.036209 , -0.588623046875 , -0.49072265625 , 0.68017578125 , 55.3274725275 , 16.3433455433 , -51.4290598291 , -3.68499755859 , 4.28771972656 , -1.54876708984 
2018/05/08 00:14:05.328681 , -0.588623046875 , -0.49072265625 , 0.68017578125 , 55.3274725275 , 16.3433455433 , -51.4290598291 , -3.68499755859 , 4.28771972656 , -1.54876708984 
2018/05/08 00:14:05.620887 , -0.588623046875 , -0.49072265625 , 0.68017578125 , 55.3274725275 , 16.3433455433 , -51.4290598291 , -3.68499755859 , 4.28771972656 , -1.54876708984 
2018/05/08 00:14:05.913292 , -0.48974609375 , -0.455322265625 , 0.690673828125 , 55.6273504274 , 17.6927960928 , -51.7289377289 , -5.75256347656 , 5.69152832031 , -0.762939453125 
2018/05/08 00:14:06.206367 , -0.48974609375 , -0.455322265625 , 0.690673828125 , 55.6273504274 , 17.6927960928 , -51.7289377289 , -5.75256347656 , 5.69152832031 , -0.762939453125 
2018/05/08 00:14:06.498382 , -0.48974609375 , -0.455322265625 , 0.690673828125 , 55.6273504274 , 17.6927960928 , -51.7289377289 , -5.75256347656 , 5.69152832031 , -0.762939453125 
2018/05/08 00:14:06.791344 , -0.48974609375 , -0.455322265625 , 0.690673828125 , 56.526984127 , 18.5924297924 , -51.8788766789 , -3.99017333984 , 4.70733642578 , 0.343322753906 
2018/05/08 00:14:07.083660 , -0.622314453125 , -0.5224609375 , 0.70751953125 , 56.526984127 , 18.5924297924 , -51.8788766789 , -3.99017333984 , 4.70733642578 , 0.343322753906 
2018/05/08 00:14:07.376501 , -0.622314453125 , -0.5224609375 , 0.70751953125 , 56.526984127 , 18.5924297924 , -51.8788766789 , -3.99017333984 , 4.70733642578 , 0.343322753906 
2018/05/08 00:14:07.668771 , -0.622314453125 , -0.5224609375 , 0.70751953125 , 56.526984127 , 18.5924297924 , -51.8788766789 , -3.99017333984 , 4.70733642578 , 0.343322753906 
2018/05/08 00:14:07.961069 , -0.544189453125 , -0.471923828125 , 0.68505859375 , 56.526984127 , 18.5924297924 , -51.8788766789 , -4.79888916016 , 5.59997558594 , -0.0381469726562 
2018/05/08 00:14:08.253461 , -0.544189453125 , -0.471923828125 , 0.68505859375 , 56.526984127 , 18.5924297924 , -51.8788766789 , -4.79888916016 , 5.59997558594 , -0.0381469726562 
2018/05/08 00:14:08.546151 , -0.544189453125 , -0.471923828125 , 0.68505859375 , 56.526984127 , 18.5924297924 , -51.8788766789 , -4.79888916016 , 5.59997558594 , -0.0381469726562 
2018/05/08 00:14:08.838951 , -0.544189453125 , -0.471923828125 , 0.68505859375 , 57.2766788767 , 17.8427350427 , -52.9284493284 , -6.75201416016 , 4.85992431641 , -0.42724609375 
2018/05/08 00:14:09.131158 , -0.545166015625 , -0.484130859375 , 0.69482421875 , 57.2766788767 , 17.8427350427 , -52.9284493284 , -6.75201416016 , 4.85992431641 , -0.42724609375 
2018/05/08 00:14:09.423983 , -0.545166015625 , -0.484130859375 , 0.69482421875 , 57.2766788767 , 17.8427350427 , -52.9284493284 , -6.75201416016 , 4.85992431641 , -0.42724609375 
2018/05/08 00:14:09.716428 , -0.545166015625 , -0.484130859375 , 0.69482421875 , 57.2766788767 , 17.8427350427 , -52.9284493284 , -4.21142578125 , 3.99780273438 , -0.595092773438 
2018/05/08 00:14:10.009069 , -0.54541015625 , -0.491455078125 , 0.66650390625 , 57.2766788767 , 17.8427350427 , -52.9284493284 , -4.21142578125 , 3.99780273438 , -0.595092773438 
2018/05/08 00:14:10.301428 , -0.54541015625 , -0.491455078125 , 0.66650390625 , 57.2766788767 , 17.8427350427 , -52.9284493284 , -4.21142578125 , 3.99780273438 , -0.595092773438 
2018/05/08 00:14:10.594013 , -0.54541015625 , -0.491455078125 , 0.66650390625 , 57.2766788767 , 17.8427350427 , -52.9284493284 , -4.21142578125 , 3.99780273438 , -0.595092773438 
2018/05/08 00:14:10.886818 , -0.53125 , -0.428955078125 , 0.664794921875 , 56.2271062271 , 17.8427350427 , -51.578998779 , -4.45556640625 , 4.14276123047 , -1.57165527344 
2018/05/08 00:14:11.178946 , -0.53125 , -0.428955078125 , 0.664794921875 , 56.2271062271 , 17.8427350427 , -51.578998779 , -4.45556640625 , 4.14276123047 , -1.57165527344 
2018/05/08 00:14:11.471649 , -0.53125 , -0.428955078125 , 0.664794921875 , 56.2271062271 , 17.8427350427 , -51.578998779 , -4.45556640625 , 4.14276123047 , -1.57165527344 
2018/05/08 00:14:11.763885 , -0.53125 , -0.428955078125 , 0.664794921875 , 56.2271062271 , 17.8427350427 , -51.578998779 , -3.53240966797 , 5.51605224609 , -0.0991821289062 
2018/05/08 00:14:12.056785 , -0.5361328125 , -0.5048828125 , 0.690185546875 , 56.2271062271 , 17.8427350427 , -51.578998779 , -3.53240966797 , 5.51605224609 , -0.0991821289062 
2018/05/08 00:14:12.348794 , -0.5361328125 , -0.5048828125 , 0.690185546875 , 56.2271062271 , 17.8427350427 , -51.578998779 , -3.53240966797 , 5.51605224609 , -0.0991821289062 
2018/05/08 00:14:12.641573 , -0.5361328125 , -0.5048828125 , 0.690185546875 , 56.2271062271 , 17.8427350427 , -51.578998779 , -3.53240966797 , 5.51605224609 , -0.0991821289062 
2018/05/08 00:14:12.934022 , -0.612060546875 , -0.519287109375 , 0.6884765625 , 56.6769230769 , 17.3929181929 , -52.0288156288 , -4.64630126953 , 5.11169433594 , -0.907897949219 
2018/05/08 00:14:13.226666 , -0.612060546875 , -0.519287109375 , 0.6884765625 , 56.6769230769 , 17.3929181929 , -52.0288156288 , -4.64630126953 , 5.11169433594 , -0.907897949219 
2018/05/08 00:14:13.519143 , -0.612060546875 , -0.519287109375 , 0.6884765625 , 56.6769230769 , 17.3929181929 , -52.0288156288 , -4.64630126953 , 5.11169433594 , -0.907897949219 
2018/05/08 00:14:13.811635 , -0.612060546875 , -0.519287109375 , 0.6884765625 , 56.6769230769 , 17.3929181929 , -52.0288156288 , -3.95965576172 , 4.69207763672 , -0.801086425781 
2018/05/08 00:14:14.104342 , -0.595703125 , -0.467529296875 , 0.66455078125 , 56.6769230769 , 17.3929181929 , -52.0288156288 , -3.95965576172 , 4.69207763672 , -0.801086425781 
2018/05/08 00:14:14.396714 , -0.595703125 , -0.467529296875 , 0.66455078125 , 56.6769230769 , 17.3929181929 , -52.0288156288 , -3.95965576172 , 4.69207763672 , -0.801086425781 
2018/05/08 00:14:14.689056 , -0.595703125 , -0.467529296875 , 0.66455078125 , 56.6769230769 , 17.3929181929 , -52.0288156288 , -3.95965576172 , 4.69207763672 , -0.801086425781 
2018/05/08 00:14:14.981270 , -0.479736328125 , -0.474853515625 , 0.69873046875 , 56.6769230769 , 17.3929181929 , -52.0288156288 , -3.71551513672 , 5.05065917969 , -0.617980957031 
2018/05/08 00:14:15.273862 , -0.479736328125 , -0.474853515625 , 0.69873046875 , 56.6769230769 , 17.3929181929 , -52.0288156288 , -3.71551513672 , 5.05065917969 , -0.617980957031 
2018/05/08 00:14:15.566703 , -0.479736328125 , -0.474853515625 , 0.69873046875 , 56.6769230769 , 17.3929181929 , -52.0288156288 , -3.71551513672 , 5.05065917969 , -0.617980957031 
2018/05/08 00:14:15.859258 , -0.479736328125 , -0.474853515625 , 0.69873046875 , 56.8268620269 , 17.5428571429 , -50.8293040293 , -5.34820556641 , 5.16510009766 , -0.648498535156 
2018/05/08 00:14:16.151870 , -0.55615234375 , -0.4794921875 , 0.704345703125 , 56.8268620269 , 17.5428571429 , -50.8293040293 , -5.34820556641 , 5.16510009766 , -0.648498535156 
2018/05/08 00:14:16.444357 , -0.55615234375 , -0.4794921875 , 0.704345703125 , 56.8268620269 , 17.5428571429 , -50.8293040293 , -5.34820556641 , 5.16510009766 , -0.648498535156 
2018/05/08 00:14:16.736923 , -0.55615234375 , -0.4794921875 , 0.704345703125 , 56.8268620269 , 17.5428571429 , -50.8293040293 , -4.43267822266 , 5.83648681641 , -0.396728515625 
2018/05/08 00:14:17.029252 , -0.619384765625 , -0.48681640625 , 0.700439453125 , 55.7772893773 , 16.1934065934 , -52.1787545788 , -4.43267822266 , 5.83648681641 , -0.396728515625 
2018/05/08 00:14:17.321815 , -0.619384765625 , -0.48681640625 , 0.700439453125 , 55.7772893773 , 16.1934065934 , -52.1787545788 , -4.43267822266 , 5.83648681641 , -0.396728515625 
2018/05/08 00:14:17.614289 , -0.619384765625 , -0.48681640625 , 0.700439453125 , 55.7772893773 , 16.1934065934 , -52.1787545788 , -4.43267822266 , 5.83648681641 , -0.396728515625 
2018/05/08 00:14:17.907023 , -0.56103515625 , -0.478515625 , 0.726318359375 , 57.4266178266 , 18.1426129426 , -50.9792429792 , -5.27191162109 , 4.46319580078 , -2.197265625 
2018/05/08 00:14:18.199093 , -0.56103515625 , -0.478515625 , 0.726318359375 , 57.4266178266 , 18.1426129426 , -50.9792429792 , -5.27191162109 , 4.46319580078 , -2.197265625 
2018/05/08 00:14:18.491846 , -0.56103515625 , -0.478515625 , 0.726318359375 , 57.4266178266 , 18.1426129426 , -50.9792429792 , -5.27191162109 , 4.46319580078 , -2.197265625 
2018/05/08 00:14:18.784605 , -0.56103515625 , -0.478515625 , 0.726318359375 , 57.4266178266 , 17.093040293 , -51.4290598291 , -7.25555419922 , 5.05828857422 , -1.23596191406 
2018/05/08 00:14:19.077048 , -0.59228515625 , -0.467529296875 , 0.704345703125 , 57.4266178266 , 17.093040293 , -51.4290598291 , -7.25555419922 , 5.05828857422 , -1.23596191406 
2018/05/08 00:14:19.369452 , -0.59228515625 , -0.467529296875 , 0.704345703125 , 57.4266178266 , 17.093040293 , -51.4290598291 , -7.25555419922 , 5.05828857422 , -1.23596191406 
2018/05/08 00:14:19.661867 , -0.59228515625 , -0.467529296875 , 0.704345703125 , 57.4266178266 , 17.093040293 , -51.4290598291 , -7.25555419922 , 5.05828857422 , -1.23596191406 
2018/05/08 00:14:19.954538 , -0.55419921875 , -0.461669921875 , 0.6923828125 , 54.8776556777 , 17.093040293 , -50.9792429792 , -6.09588623047 , 4.20379638672 , -1.11389160156 
2018/05/08 00:14:20.247057 , -0.55419921875 , -0.461669921875 , 0.6923828125 , 54.8776556777 , 17.093040293 , -50.9792429792 , -6.09588623047 , 4.20379638672 , -1.11389160156 
2018/05/08 00:14:20.539484 , -0.55419921875 , -0.461669921875 , 0.6923828125 , 54.8776556777 , 17.093040293 , -50.9792429792 , -6.09588623047 , 4.20379638672 , -1.11389160156 
2018/05/08 00:14:20.831858 , -0.55419921875 , -0.461669921875 , 0.6923828125 , 56.526984127 , 16.7931623932 , -51.578998779 , -4.61578369141 , 5.55419921875 , -0.3662109375 
2018/05/08 00:14:21.124517 , -0.56689453125 , -0.47314453125 , 0.684326171875 , 56.526984127 , 16.7931623932 , -51.578998779 , -4.61578369141 , 5.55419921875 , -0.3662109375 
2018/05/08 00:14:21.416819 , -0.56689453125 , -0.47314453125 , 0.684326171875 , 56.526984127 , 16.7931623932 , -51.578998779 , -4.61578369141 , 5.55419921875 , -0.3662109375 
2018/05/08 00:14:21.709185 , -0.56689453125 , -0.47314453125 , 0.684326171875 , 56.526984127 , 16.7931623932 , -51.578998779 , -4.75311279297 , 3.62396240234 , -0.511169433594 
2018/05/08 00:14:22.001755 , -0.583740234375 , -0.520751953125 , 0.66943359375 , 54.7277167277 , 15.1438339438 , -51.2791208791 , -4.75311279297 , 3.62396240234 , -0.511169433594 
2018/05/08 00:14:22.294606 , -0.583740234375 , -0.520751953125 , 0.66943359375 , 54.7277167277 , 15.1438339438 , -51.2791208791 , -4.75311279297 , 3.62396240234 , -0.511169433594 
2018/05/08 00:14:22.587150 , -0.583740234375 , -0.520751953125 , 0.66943359375 , 54.7277167277 , 15.1438339438 , -51.2791208791 , -4.75311279297 , 3.62396240234 , -0.511169433594 
2018/05/08 00:14:22.879554 , -0.583740234375 , -0.520751953125 , 0.66943359375 , 54.5777777778 , 16.6432234432 , -50.9792429792 , -5.14221191406 , 5.05065917969 , 1.51062011719 
2018/05/08 00:14:23.172061 , -0.64453125 , -0.489990234375 , 0.705322265625 , 54.5777777778 , 16.6432234432 , -50.9792429792 , -5.14221191406 , 5.05065917969 , 1.51062011719 
2018/05/08 00:14:23.464572 , -0.64453125 , -0.489990234375 , 0.705322265625 , 54.5777777778 , 16.6432234432 , -50.9792429792 , -5.14221191406 , 5.05065917969 , 1.51062011719 
2018/05/08 00:14:23.757196 , -0.64453125 , -0.489990234375 , 0.705322265625 , 54.5777777778 , 16.6432234432 , -50.9792429792 , -3.79943847656 , 4.58526611328 , -0.381469726562 
2018/05/08 00:14:24.049410 , -0.53466796875 , -0.518310546875 , 0.6923828125 , 55.3274725275 , 17.6927960928 , -50.9792429792 , -3.79943847656 , 4.58526611328 , -0.381469726562 
2018/05/08 00:14:24.342097 , -0.53466796875 , -0.518310546875 , 0.6923828125 , 55.3274725275 , 17.6927960928 , -50.9792429792 , -3.79943847656 , 4.58526611328 , -0.381469726562 
2018/05/08 00:14:24.634670 , -0.53466796875 , -0.518310546875 , 0.6923828125 , 55.3274725275 , 17.6927960928 , -50.9792429792 , -3.79943847656 , 4.58526611328 , -0.381469726562 
2018/05/08 00:14:24.927356 , -0.530517578125 , -0.479248046875 , 0.629150390625 , 56.6769230769 , 17.6927960928 , -51.4290598291 , -3.73840332031 , 5.71441650391 , -0.67138671875 
2018/05/08 00:14:25.219628 , -0.530517578125 , -0.479248046875 , 0.629150390625 , 56.6769230769 , 17.6927960928 , -51.4290598291 , -3.73840332031 , 5.71441650391 , -0.67138671875 
2018/05/08 00:14:25.512288 , -0.530517578125 , -0.479248046875 , 0.629150390625 , 56.6769230769 , 17.6927960928 , -51.4290598291 , -3.73840332031 , 5.71441650391 , -0.67138671875 
2018/05/08 00:14:25.804696 , -0.530517578125 , -0.479248046875 , 0.629150390625 , 56.2271062271 , 16.7931623932 , -51.8788766789 , -3.44085693359 , 4.76837158203 , -1.85394287109 
2018/05/08 00:14:26.097442 , -0.581298828125 , -0.47802734375 , 0.6689453125 , 56.2271062271 , 16.7931623932 , -51.8788766789 , -3.44085693359 , 4.76837158203 , -1.85394287109 
2018/05/08 00:14:26.389821 , -0.581298828125 , -0.47802734375 , 0.6689453125 , 56.2271062271 , 16.7931623932 , -51.8788766789 , -3.44085693359 , 4.76837158203 , -1.85394287109 
2018/05/08 00:14:26.682012 , -0.581298828125 , -0.47802734375 , 0.6689453125 , 56.2271062271 , 16.7931623932 , -51.8788766789 , -3.44085693359 , 4.76837158203 , -1.85394287109 
2018/05/08 00:14:26.974776 , -0.564208984375 , -0.5185546875 , 0.708251953125 , 56.2271062271 , 17.5428571429 , -51.2791208791 , -2.98309326172 , 4.09698486328 , 1.69372558594 
2018/05/08 00:14:27.267164 , -0.564208984375 , -0.5185546875 , 0.708251953125 , 56.2271062271 , 17.5428571429 , -51.2791208791 , -2.98309326172 , 4.09698486328 , 1.69372558594 
2018/05/08 00:14:27.560405 , -0.564208984375 , -0.5185546875 , 0.708251953125 , 56.2271062271 , 17.5428571429 , -51.2791208791 , -2.98309326172 , 4.09698486328 , 1.69372558594 
2018/05/08 00:14:27.852270 , -0.564208984375 , -0.5185546875 , 0.708251953125 , 56.6769230769 , 17.093040293 , -53.0783882784 , -2.73895263672 , 7.01141357422 , 0.709533691406 
2018/05/08 00:14:28.144597 , -0.542724609375 , -0.466064453125 , 0.685302734375 , 56.6769230769 , 17.093040293 , -53.0783882784 , -2.73895263672 , 7.01141357422 , 0.709533691406 
2018/05/08 00:14:28.436980 , -0.542724609375 , -0.466064453125 , 0.685302734375 , 56.6769230769 , 17.093040293 , -53.0783882784 , -2.73895263672 , 7.01141357422 , 0.709533691406 
2018/05/08 00:14:28.729509 , -0.542724609375 , -0.466064453125 , 0.685302734375 , 56.6769230769 , 17.093040293 , -53.0783882784 , -4.50897216797 , 5.25665283203 , 1.11389160156 
2018/05/08 00:14:29.022284 , -0.560791015625 , -0.5048828125 , 0.669677734375 , 55.4774114774 , 17.5428571429 , -50.5294261294 , -4.50897216797 , 5.25665283203 , 1.11389160156 
2018/05/08 00:14:29.314684 , -0.560791015625 , -0.5048828125 , 0.669677734375 , 55.4774114774 , 17.5428571429 , -50.5294261294 , -4.50897216797 , 5.25665283203 , 1.11389160156 
2018/05/08 00:14:29.607527 , -0.560791015625 , -0.5048828125 , 0.669677734375 , 55.4774114774 , 17.5428571429 , -50.5294261294 , -4.50897216797 , 5.25665283203 , 1.11389160156 
2018/05/08 00:14:29.899497 , -0.607666015625 , -0.466064453125 , 0.650634765625 , 56.377045177 , 18.1426129426 , -52.0288156288 , -3.50952148438 , 4.28771972656 , 0.442504882812 
2018/05/08 00:14:30.192562 , -0.607666015625 , -0.466064453125 , 0.650634765625 , 56.377045177 , 18.1426129426 , -52.0288156288 , -3.50952148438 , 4.28771972656 , 0.442504882812 
2018/05/08 00:14:30.484808 , -0.607666015625 , -0.466064453125 , 0.650634765625 , 56.377045177 , 18.1426129426 , -52.0288156288 , -3.50952148438 , 4.28771972656 , 0.442504882812 
2018/05/08 00:14:30.777505 , -0.607666015625 , -0.466064453125 , 0.650634765625 , 56.377045177 , 18.1426129426 , -52.0288156288 , -5.27191162109 , 5.88226318359 , -1.43432617188 
2018/05/08 00:14:31.069957 , -0.545166015625 , -0.484130859375 , 0.67529296875 , 56.377045177 , 18.4424908425 , -51.4290598291 , -5.27191162109 , 5.88226318359 , -1.43432617188 
2018/05/08 00:14:31.362384 , -0.545166015625 , -0.484130859375 , 0.67529296875 , 56.377045177 , 18.4424908425 , -51.4290598291 , -5.27191162109 , 5.88226318359 , -1.43432617188 
2018/05/08 00:14:31.654949 , -0.545166015625 , -0.484130859375 , 0.67529296875 , 56.377045177 , 18.4424908425 , -51.4290598291 , -5.27191162109 , 5.88226318359 , -1.43432617188 
2018/05/08 00:14:31.947525 , -0.542236328125 , -0.505615234375 , 0.672119140625 , 56.8268620269 , 16.7931623932 , -51.2791208791 , -3.5400390625 , 4.42504882812 , -2.70843505859 
2018/05/08 00:14:32.240035 , -0.542236328125 , -0.505615234375 , 0.672119140625 , 56.8268620269 , 16.7931623932 , -51.2791208791 , -3.5400390625 , 4.42504882812 , -2.70843505859 
2018/05/08 00:14:32.532203 , -0.542236328125 , -0.505615234375 , 0.672119140625 , 56.8268620269 , 16.7931623932 , -51.2791208791 , -3.5400390625 , 4.42504882812 , -2.70843505859 
2018/05/08 00:14:32.825091 , -0.542236328125 , -0.505615234375 , 0.672119140625 , 57.4266178266 , 17.093040293 , -51.4290598291 , -3.25775146484 , 6.57653808594 , 1.22833251953 
2018/05/08 00:14:33.117349 , -0.561279296875 , -0.439697265625 , 0.701171875 , 57.4266178266 , 17.093040293 , -51.4290598291 , -3.25775146484 , 6.57653808594 , 1.22833251953 
2018/05/08 00:14:33.409973 , -0.561279296875 , -0.439697265625 , 0.701171875 , 57.4266178266 , 17.093040293 , -51.4290598291 , -3.25775146484 , 6.57653808594 , 1.22833251953 
2018/05/08 00:14:33.702400 , -0.561279296875 , -0.439697265625 , 0.701171875 , 57.4266178266 , 17.093040293 , -51.4290598291 , -4.00543212891 , 3.70788574219 , 0.831604003906 
2018/05/08 00:14:33.994974 , -0.5576171875 , -0.4951171875 , 0.66015625 , 54.8776556777 , 18.1426129426 , -50.9792429792 , -4.00543212891 , 3.70788574219 , 0.831604003906 
2018/05/08 00:14:34.287657 , -0.5576171875 , -0.4951171875 , 0.66015625 , 54.8776556777 , 18.1426129426 , -50.9792429792 , -4.00543212891 , 3.70788574219 , 0.831604003906 
2018/05/08 00:14:34.579962 , -0.5576171875 , -0.4951171875 , 0.66015625 , 54.8776556777 , 18.1426129426 , -50.9792429792 , -4.00543212891 , 3.70788574219 , 0.831604003906 
2018/05/08 00:14:34.872347 , -0.5576171875 , -0.4951171875 , 0.66015625 , 55.9272283272 , 17.3929181929 , -51.4290598291 , -2.5634765625 , 4.42504882812 , 1.43432617188 
2018/05/08 00:14:35.164572 , -0.557373046875 , -0.4521484375 , 0.67431640625 , 55.9272283272 , 17.3929181929 , -51.4290598291 , -2.5634765625 , 4.42504882812 , 1.43432617188 
2018/05/08 00:14:35.457311 , -0.557373046875 , -0.4521484375 , 0.67431640625 , 55.9272283272 , 17.3929181929 , -51.4290598291 , -2.5634765625 , 4.42504882812 , 1.43432617188 
2018/05/08 00:14:35.749712 , -0.557373046875 , -0.4521484375 , 0.67431640625 , 55.9272283272 , 17.3929181929 , -51.4290598291 , -4.04357910156 , 3.05938720703 , -0.389099121094 
2018/05/08 00:14:36.042557 , -0.604248046875 , -0.4609375 , 0.701416015625 , 56.9768009768 , 17.3929181929 , -52.0288156288 , -4.04357910156 , 3.05938720703 , -0.389099121094 
2018/05/08 00:14:36.335038 , -0.604248046875 , -0.4609375 , 0.701416015625 , 56.9768009768 , 17.3929181929 , -52.0288156288 , -4.04357910156 , 3.05938720703 , -0.389099121094 
2018/05/08 00:14:36.627666 , -0.604248046875 , -0.4609375 , 0.701416015625 , 56.9768009768 , 17.3929181929 , -52.0288156288 , -4.04357910156 , 3.05938720703 , -0.389099121094 
2018/05/08 00:14:36.920104 , -0.52392578125 , -0.477783203125 , 0.702392578125 , 55.6273504274 , 17.093040293 , -53.0783882784 , -5.30242919922 , 4.52423095703 , -1.98364257812 
2018/05/08 00:14:37.212540 , -0.52392578125 , -0.477783203125 , 0.702392578125 , 55.6273504274 , 17.093040293 , -53.0783882784 , -5.30242919922 , 4.52423095703 , -1.98364257812 
2018/05/08 00:14:37.505303 , -0.52392578125 , -0.477783203125 , 0.702392578125 , 55.6273504274 , 17.093040293 , -53.0783882784 , -5.30242919922 , 4.52423095703 , -1.98364257812 
2018/05/08 00:14:37.797646 , -0.52392578125 , -0.477783203125 , 0.702392578125 , 55.7772893773 , 16.1934065934 , -51.578998779 , -2.98309326172 , 4.70733642578 , -0.328063964844 
2018/05/08 00:14:38.090154 , -0.644287109375 , -0.494384765625 , 0.6728515625 , 55.7772893773 , 16.1934065934 , -51.578998779 , -2.98309326172 , 4.70733642578 , -0.328063964844 
2018/05/08 00:14:38.382332 , -0.644287109375 , -0.494384765625 , 0.6728515625 , 55.7772893773 , 16.1934065934 , -51.578998779 , -2.98309326172 , 4.70733642578 , -0.328063964844 
2018/05/08 00:14:38.675086 , -0.644287109375 , -0.494384765625 , 0.6728515625 , 55.7772893773 , 16.1934065934 , -51.578998779 , -2.98309326172 , 4.70733642578 , -0.328063964844 
2018/05/08 00:14:38.967542 , -0.57080078125 , -0.51708984375 , 0.643310546875 , 56.377045177 , 18.1426129426 , -54.7277167277 , -3.73840332031 , 5.65338134766 , 2.14385986328 
2018/05/08 00:14:39.260084 , -0.57080078125 , -0.51708984375 , 0.643310546875 , 56.377045177 , 18.1426129426 , -54.7277167277 , -3.73840332031 , 5.65338134766 , 2.14385986328 
2018/05/08 00:14:39.552697 , -0.57080078125 , -0.51708984375 , 0.643310546875 , 56.377045177 , 18.1426129426 , -54.7277167277 , -3.73840332031 , 5.65338134766 , 2.14385986328 
2018/05/08 00:14:39.845134 , -0.57080078125 , -0.51708984375 , 0.643310546875 , 56.9768009768 , 17.093040293 , -51.4290598291 , -4.84466552734 , 4.44030761719 , -1.02233886719 
2018/05/08 00:14:40.137737 , -0.58447265625 , -0.498291015625 , 0.6845703125 , 56.9768009768 , 17.093040293 , -51.4290598291 , -4.84466552734 , 4.44030761719 , -1.02233886719 
2018/05/08 00:14:40.430172 , -0.58447265625 , -0.498291015625 , 0.6845703125 , 56.9768009768 , 17.093040293 , -51.4290598291 , -4.84466552734 , 4.44030761719 , -1.02233886719 
2018/05/08 00:14:40.722658 , -0.58447265625 , -0.498291015625 , 0.6845703125 , 56.9768009768 , 17.093040293 , -51.4290598291 , -2.02178955078 , 2.32696533203 , -0.518798828125 
2018/05/08 00:14:41.015058 , -0.575927734375 , -0.468017578125 , 0.698486328125 , 56.377045177 , 16.3433455433 , -50.6793650794 , -2.02178955078 , 2.32696533203 , -0.518798828125 
2018/05/08 00:14:41.356836 , -0.575927734375 , -0.468017578125 , 0.698486328125 , 56.377045177 , 16.3433455433 , -50.6793650794 , -2.02178955078 , 2.32696533203 , -0.518798828125 
2018/05/08 00:14:41.648949 , -0.575927734375 , -0.468017578125 , 0.698486328125 , 56.377045177 , 16.3433455433 , -50.6793650794 , -2.02178955078 , 2.32696533203 , -0.518798828125 
2018/05/08 00:14:41.941054 , -0.55029296875 , -0.564453125 , 0.635986328125 , 56.377045177 , 17.093040293 , -52.0288156288 , -13.7405395508 , -2.15148925781 , 4.95910644531 
2018/05/08 00:14:42.233466 , -0.55029296875 , -0.564453125 , 0.635986328125 , 56.377045177 , 17.093040293 , -52.0288156288 , -13.7405395508 , -2.15148925781 , 4.95910644531 
2018/05/08 00:14:42.526639 , -0.55029296875 , -0.564453125 , 0.635986328125 , 56.377045177 , 17.093040293 , -52.0288156288 , -13.7405395508 , -2.15148925781 , 4.95910644531 
2018/05/08 00:14:42.819029 , -0.55029296875 , -0.564453125 , 0.635986328125 , 59.3758241758 , 17.242979243 , -54.2778998779 , -4.12750244141 , 4.55474853516 , -1.83868408203 
2018/05/08 00:14:43.159861 , -0.555419921875 , -0.555908203125 , 0.634765625 , 59.3758241758 , 17.242979243 , -54.2778998779 , -4.12750244141 , 4.55474853516 , -1.83868408203 
2018/05/08 00:14:43.452327 , -0.555419921875 , -0.555908203125 , 0.634765625 , 59.3758241758 , 17.242979243 , -54.2778998779 , -4.12750244141 , 4.55474853516 , -1.83868408203 
2018/05/08 00:14:43.745187 , -0.555419921875 , -0.555908203125 , 0.634765625 , 59.3758241758 , 17.242979243 , -54.2778998779 , 2.58636474609 , 6.63757324219 , 0.167846679688 
2018/05/08 00:14:44.037694 , -0.588623046875 , -0.512939453125 , 0.654541015625 , 59.8256410256 , 16.6432234432 , -52.3286935287 , 2.58636474609 , 6.63757324219 , 0.167846679688 
2018/05/08 00:14:44.330153 , -0.588623046875 , -0.512939453125 , 0.654541015625 , 59.8256410256 , 16.6432234432 , -52.3286935287 , 2.58636474609 , 6.63757324219 , 0.167846679688 
2018/05/08 00:14:44.622672 , -0.588623046875 , -0.512939453125 , 0.654541015625 , 59.8256410256 , 16.6432234432 , -52.3286935287 , 2.58636474609 , 6.63757324219 , 0.167846679688 
2018/05/08 00:14:44.915093 , -0.51806640625 , -0.53955078125 , 0.64501953125 , 59.5257631258 , 15.2937728938 , -53.0783882784 , -3.18145751953 , 4.28771972656 , 0.160217285156 
2018/05/08 00:14:45.207693 , -0.51806640625 , -0.53955078125 , 0.64501953125 , 59.5257631258 , 15.2937728938 , -53.0783882784 , -3.18145751953 , 4.28771972656 , 0.160217285156 
2018/05/08 00:14:45.499923 , -0.51806640625 , -0.53955078125 , 0.64501953125 , 59.5257631258 , 15.2937728938 , -53.0783882784 , -3.18145751953 , 4.28771972656 , 0.160217285156 
2018/05/08 00:14:45.792678 , -0.51806640625 , -0.53955078125 , 0.64501953125 , 57.7264957265 , 15.8935286935 , -52.7785103785 , -5.88226318359 , 6.53076171875 , -1.28936767578 
2018/05/08 00:14:46.085237 , -0.570068359375 , -0.572998046875 , 0.651123046875 , 57.7264957265 , 15.8935286935 , -52.7785103785 , -5.88226318359 , 6.53076171875 , -1.28936767578 
2018/05/08 00:14:46.377720 , -0.570068359375 , -0.572998046875 , 0.651123046875 , 57.7264957265 , 15.8935286935 , -52.7785103785 , -5.88226318359 , 6.53076171875 , -1.28936767578 
2018/05/08 00:14:46.670209 , -0.570068359375 , -0.572998046875 , 0.651123046875 , 57.7264957265 , 15.8935286935 , -52.7785103785 , -5.88226318359 , 6.53076171875 , -1.28936767578 
2018/05/08 00:14:46.962714 , -0.6162109375 , -0.536376953125 , 0.614013671875 , 57.8764346764 , 14.0942612943 , -53.5282051282 , -4.81414794922 , 5.90515136719 , -0.259399414062 
2018/05/08 00:14:47.255355 , -0.6162109375 , -0.536376953125 , 0.614013671875 , 57.8764346764 , 14.0942612943 , -53.5282051282 , -4.81414794922 , 5.90515136719 , -0.259399414062 
2018/05/08 00:14:47.547703 , -0.6162109375 , -0.536376953125 , 0.614013671875 , 57.8764346764 , 14.0942612943 , -53.5282051282 , -4.81414794922 , 5.90515136719 , -0.259399414062 
2018/05/08 00:14:47.840273 , -0.6162109375 , -0.536376953125 , 0.614013671875 , 58.4761904762 , 17.093040293 , -53.3782661783 , -3.95965576172 , 4.75311279297 , -1.35803222656 
2018/05/08 00:14:48.132497 , -0.531982421875 , -0.524169921875 , 0.63134765625 , 58.4761904762 , 17.093040293 , -53.3782661783 , -3.95965576172 , 4.75311279297 , -1.35803222656 
2018/05/08 00:14:48.436351 , -0.531982421875 , -0.524169921875 , 0.63134765625 , 58.4761904762 , 17.093040293 , -53.3782661783 , -3.95965576172 , 4.75311279297 , -1.35803222656 
2018/05/08 00:14:48.717287 , -0.531982421875 , -0.524169921875 , 0.63134765625 , 58.4761904762 , 17.093040293 , -53.3782661783 , -4.52423095703 , 2.63214111328 , -1.220703125 
2018/05/08 00:14:49.009912 , -0.529296875 , -0.528564453125 , 0.611083984375 , 57.5765567766 , 17.8427350427 , -55.6273504274 , -4.52423095703 , 2.63214111328 , -1.220703125 
2018/05/08 00:14:49.302813 , -0.529296875 , -0.528564453125 , 0.611083984375 , 57.5765567766 , 17.8427350427 , -55.6273504274 , -4.52423095703 , 2.63214111328 , -1.220703125 
2018/05/08 00:14:49.595300 , -0.529296875 , -0.528564453125 , 0.611083984375 , 57.5765567766 , 17.8427350427 , -55.6273504274 , -4.52423095703 , 2.63214111328 , -1.220703125 
2018/05/08 00:14:49.887796 , -0.571533203125 , -0.57958984375 , 0.604248046875 , 57.4266178266 , 17.093040293 , -53.8280830281 , -2.88391113281 , 6.08825683594 , 0.419616699219 
2018/05/08 00:14:50.180233 , -0.571533203125 , -0.57958984375 , 0.604248046875 , 57.4266178266 , 17.093040293 , -53.8280830281 , -2.88391113281 , 6.08825683594 , 0.419616699219 
2018/05/08 00:14:50.472766 , -0.571533203125 , -0.57958984375 , 0.604248046875 , 57.4266178266 , 17.093040293 , -53.8280830281 , -2.88391113281 , 6.08825683594 , 0.419616699219 
2018/05/08 00:14:50.765174 , -0.571533203125 , -0.57958984375 , 0.604248046875 , 57.4266178266 , 17.093040293 , -53.8280830281 , -2.72369384766 , 3.92913818359 , -0.79345703125 
2018/05/08 00:14:51.057754 , -0.5419921875 , -0.5078125 , 0.640869140625 , 57.4266178266 , 17.093040293 , -53.8280830281 , -2.72369384766 , 3.92913818359 , -0.79345703125 
2018/05/08 00:14:51.398861 , -0.5419921875 , -0.5078125 , 0.640869140625 , 57.4266178266 , 17.093040293 , -53.8280830281 , -2.72369384766 , 3.92913818359 , -0.79345703125 
2018/05/08 00:14:51.691511 , -0.5419921875 , -0.5078125 , 0.640869140625 , 57.4266178266 , 17.093040293 , -53.8280830281 , -2.76184082031 , 4.81414794922 , -1.09100341797 
2018/05/08 00:14:51.983840 , -0.59326171875 , -0.50048828125 , 0.6611328125 , 57.8764346764 , 17.5428571429 , -53.978021978 , -2.76184082031 , 4.81414794922 , -1.09100341797 
2018/05/08 00:14:52.276611 , -0.59326171875 , -0.50048828125 , 0.6611328125 , 57.8764346764 , 17.5428571429 , -53.978021978 , -2.76184082031 , 4.81414794922 , -1.09100341797 
2018/05/08 00:14:52.569047 , -0.59326171875 , -0.50048828125 , 0.6611328125 , 57.8764346764 , 17.5428571429 , -53.978021978 , -2.76184082031 , 4.81414794922 , -1.09100341797 
2018/05/08 00:14:52.861568 , -0.59326171875 , -0.50048828125 , 0.6611328125 , 57.8764346764 , 17.5428571429 , -53.978021978 , -1.80053710938 , 3.37982177734 , 0.564575195312 
2018/05/08 00:14:53.154117 , -0.567138671875 , -0.57958984375 , 0.61767578125 , 57.8764346764 , 17.5428571429 , -53.978021978 , -1.80053710938 , 3.37982177734 , 0.564575195312 
2018/05/08 00:14:53.446643 , -0.567138671875 , -0.57958984375 , 0.61767578125 , 57.8764346764 , 17.5428571429 , -53.978021978 , -1.80053710938 , 3.37982177734 , 0.564575195312 
2018/05/08 00:14:53.739096 , -0.567138671875 , -0.57958984375 , 0.61767578125 , 57.8764346764 , 17.5428571429 , -53.978021978 , -7.53784179688 , 3.70788574219 , -0.770568847656 
2018/05/08 00:14:54.031469 , -0.583984375 , -0.49560546875 , 0.65087890625 , 58.4761904762 , 15.5936507937 , -53.0783882784 , -7.53784179688 , 3.70788574219 , -0.770568847656 
2018/05/08 00:14:54.324182 , -0.583984375 , -0.49560546875 , 0.65087890625 , 58.4761904762 , 15.5936507937 , -53.0783882784 , -7.53784179688 , 3.70788574219 , -0.770568847656 
2018/05/08 00:14:54.616471 , -0.583984375 , -0.49560546875 , 0.65087890625 , 58.4761904762 , 15.5936507937 , -53.0783882784 , -7.53784179688 , 3.70788574219 , -0.770568847656 
2018/05/08 00:14:54.909086 , -0.595947265625 , -0.6025390625 , 0.651611328125 , 61.7748473748 , 16.4932844933 , -55.3274725275 , -7.76672363281 , 5.64575195312 , -2.08282470703 
2018/05/08 00:14:55.201507 , -0.595947265625 , -0.6025390625 , 0.651611328125 , 61.7748473748 , 16.4932844933 , -55.3274725275 , -7.76672363281 , 5.64575195312 , -2.08282470703 
2018/05/08 00:14:55.493812 , -0.595947265625 , -0.6025390625 , 0.651611328125 , 61.7748473748 , 16.4932844933 , -55.3274725275 , -7.76672363281 , 5.64575195312 , -2.08282470703 
2018/05/08 00:14:55.786339 , -0.595947265625 , -0.6025390625 , 0.651611328125 , 59.3758241758 , 18.2925518926 , -53.5282051282 , -4.37927246094 , 4.18090820312 , 0.694274902344 
2018/05/08 00:14:56.078757 , -0.54638671875 , -0.600341796875 , 0.6328125 , 59.3758241758 , 18.2925518926 , -53.5282051282 , -4.37927246094 , 4.18090820312 , 0.694274902344 
2018/05/08 00:14:56.371585 , -0.54638671875 , -0.600341796875 , 0.6328125 , 59.3758241758 , 18.2925518926 , -53.5282051282 , -4.37927246094 , 4.18090820312 , 0.694274902344 
2018/05/08 00:14:56.664087 , -0.54638671875 , -0.600341796875 , 0.6328125 , 59.3758241758 , 18.2925518926 , -53.5282051282 , -4.37927246094 , 4.18090820312 , 0.694274902344 
2018/05/08 00:14:56.956654 , -0.572021484375 , -0.547119140625 , 0.6298828125 , 59.3758241758 , 18.2925518926 , -53.5282051282 , -4.86755371094 , 5.19561767578 , -0.503540039062 
2018/05/08 00:14:57.248946 , -0.572021484375 , -0.547119140625 , 0.6298828125 , 59.3758241758 , 18.2925518926 , -53.5282051282 , -4.86755371094 , 5.19561767578 , -0.503540039062 
2018/05/08 00:14:57.541584 , -0.572021484375 , -0.547119140625 , 0.6298828125 , 59.3758241758 , 18.2925518926 , -53.5282051282 , -4.86755371094 , 5.19561767578 , -0.503540039062 
2018/05/08 00:14:57.833930 , -0.572021484375 , -0.547119140625 , 0.6298828125 , 59.8256410256 , 17.6927960928 , -55.7772893773 , -3.19671630859 , 3.82995605469 , -0.0152587890625 
2018/05/08 00:14:58.126781 , -0.57373046875 , -0.54296875 , 0.59912109375 , 59.8256410256 , 17.6927960928 , -55.7772893773 , -3.19671630859 , 3.82995605469 , -0.0152587890625 
2018/05/08 00:14:58.419079 , -0.57373046875 , -0.54296875 , 0.59912109375 , 59.8256410256 , 17.6927960928 , -55.7772893773 , -3.19671630859 , 3.82995605469 , -0.0152587890625 
2018/05/08 00:14:58.711587 , -0.57373046875 , -0.54296875 , 0.59912109375 , 59.8256410256 , 17.6927960928 , -55.7772893773 , -3.87573242188 , 4.73022460938 , 2.64739990234 
2018/05/08 00:14:59.004162 , -0.5400390625 , -0.50244140625 , 0.689453125 , 58.4761904762 , 18.4424908425 , -54.7277167277 , -3.87573242188 , 4.73022460938 , 2.64739990234 
2018/05/08 00:14:59.296451 , -0.5400390625 , -0.50244140625 , 0.689453125 , 58.4761904762 , 18.4424908425 , -54.7277167277 , -3.87573242188 , 4.73022460938 , 2.64739990234 
2018/05/08 00:14:59.638294 , -0.5400390625 , -0.50244140625 , 0.689453125 , 58.4761904762 , 18.4424908425 , -54.7277167277 , -3.87573242188 , 4.73022460938 , 2.64739990234 
2018/05/08 00:14:59.930134 , -0.54833984375 , -0.545166015625 , 0.658203125 , 59.0759462759 , 16.6432234432 , -55.1775335775 , -4.31060791016 , 5.44738769531 , -1.10626220703 
2018/05/08 00:15:00.222920 , -0.54833984375 , -0.545166015625 , 0.658203125 , 59.0759462759 , 16.6432234432 , -55.1775335775 , -4.31060791016 , 5.44738769531 , -1.10626220703 
2018/05/08 00:15:00.515257 , -0.54833984375 , -0.545166015625 , 0.658203125 , 59.0759462759 , 16.6432234432 , -55.1775335775 , -4.31060791016 , 5.44738769531 , -1.10626220703 
2018/05/08 00:15:00.807953 , -0.54833984375 , -0.545166015625 , 0.658203125 , 58.6261294261 , 16.4932844933 , -55.0275946276 , -1.44195556641 , 4.31823730469 , 1.33514404297 
2018/05/08 00:15:01.100126 , -0.553955078125 , -0.510498046875 , 0.720458984375 , 58.6261294261 , 16.4932844933 , -55.0275946276 , -1.44195556641 , 4.31823730469 , 1.33514404297 
2018/05/08 00:15:01.392949 , -0.553955078125 , -0.510498046875 , 0.720458984375 , 58.6261294261 , 16.4932844933 , -55.0275946276 , -1.44195556641 , 4.31823730469 , 1.33514404297 
2018/05/08 00:15:01.685423 , -0.553955078125 , -0.510498046875 , 0.720458984375 , 58.6261294261 , 16.4932844933 , -55.0275946276 , -1.44195556641 , 4.31823730469 , 1.33514404297 
2018/05/08 00:15:01.977973 , -0.568115234375 , -0.489990234375 , 0.70458984375 , 56.8268620269 , 18.5924297924 , -52.9284493284 , -5.35583496094 , 5.92041015625 , -1.36566162109 
2018/05/08 00:15:02.270186 , -0.568115234375 , -0.489990234375 , 0.70458984375 , 56.8268620269 , 18.5924297924 , -52.9284493284 , -5.35583496094 , 5.92041015625 , -1.36566162109 
2018/05/08 00:15:02.562605 , -0.568115234375 , -0.489990234375 , 0.70458984375 , 56.8268620269 , 18.5924297924 , -52.9284493284 , -5.35583496094 , 5.92041015625 , -1.36566162109 
2018/05/08 00:15:02.855151 , -0.568115234375 , -0.489990234375 , 0.70458984375 , 55.3274725275 , 18.7423687424 , -52.7785103785 , -1.57165527344 , 4.25720214844 , 0.236511230469 
2018/05/08 00:15:03.147853 , -0.552490234375 , -0.492431640625 , 0.731201171875 , 55.3274725275 , 18.7423687424 , -52.7785103785 , -1.57165527344 , 4.25720214844 , 0.236511230469 
2018/05/08 00:15:03.440432 , -0.552490234375 , -0.492431640625 , 0.731201171875 , 55.3274725275 , 18.7423687424 , -52.7785103785 , -1.57165527344 , 4.25720214844 , 0.236511230469 
2018/05/08 00:15:03.732622 , -0.552490234375 , -0.492431640625 , 0.731201171875 , 55.3274725275 , 18.7423687424 , -52.7785103785 , -4.21142578125 , 4.24194335938 , -0.137329101562 
2018/05/08 00:15:04.025453 , -0.570556640625 , -0.466552734375 , 0.70556640625 , 56.6769230769 , 18.4424908425 , -53.3782661783 , -4.21142578125 , 4.24194335938 , -0.137329101562 
2018/05/08 00:15:04.317892 , -0.570556640625 , -0.466552734375 , 0.70556640625 , 56.6769230769 , 18.4424908425 , -53.3782661783 , -4.21142578125 , 4.24194335938 , -0.137329101562 
2018/05/08 00:15:04.610487 , -0.570556640625 , -0.466552734375 , 0.70556640625 , 56.6769230769 , 18.4424908425 , -53.3782661783 , -4.21142578125 , 4.24194335938 , -0.137329101562 
2018/05/08 00:15:04.902926 , -0.58154296875 , -0.5068359375 , 0.67626953125 , 56.8268620269 , 17.5428571429 , -52.6285714286 , -2.34985351562 , 4.79888916016 , 1.70135498047 
2018/05/08 00:15:05.195431 , -0.58154296875 , -0.5068359375 , 0.67626953125 , 56.8268620269 , 17.5428571429 , -52.6285714286 , -2.34985351562 , 4.79888916016 , 1.70135498047 
2018/05/08 00:15:05.487985 , -0.58154296875 , -0.5068359375 , 0.67626953125 , 56.8268620269 , 17.5428571429 , -52.6285714286 , -2.34985351562 , 4.79888916016 , 1.70135498047 
2018/05/08 00:15:05.780406 , -0.58154296875 , -0.5068359375 , 0.67626953125 , 56.8268620269 , 17.5428571429 , -52.6285714286 , -5.66864013672 , 5.18798828125 , -0.373840332031 
2018/05/08 00:15:06.072949 , -0.531005859375 , -0.461181640625 , 0.659423828125 , 56.377045177 , 17.093040293 , -52.0288156288 , -5.66864013672 , 5.18798828125 , -0.373840332031 
2018/05/08 00:15:06.365226 , -0.531005859375 , -0.461181640625 , 0.659423828125 , 56.377045177 , 17.093040293 , -52.0288156288 , -5.66864013672 , 5.18798828125 , -0.373840332031 
2018/05/08 00:15:06.657883 , -0.531005859375 , -0.461181640625 , 0.659423828125 , 56.377045177 , 17.093040293 , -52.0288156288 , -5.66864013672 , 5.18798828125 , -0.373840332031 
2018/05/08 00:15:06.950131 , -0.55029296875 , -0.4921875 , 0.721435546875 , 56.377045177 , 18.1426129426 , -53.0783882784 , -4.85229492188 , 4.33349609375 , -0.129699707031 
2018/05/08 00:15:07.242957 , -0.55029296875 , -0.4921875 , 0.721435546875 , 56.377045177 , 18.1426129426 , -53.0783882784 , -4.85229492188 , 4.33349609375 , -0.129699707031 
2018/05/08 00:15:07.535457 , -0.55029296875 , -0.4921875 , 0.721435546875 , 56.377045177 , 18.1426129426 , -53.0783882784 , -4.85229492188 , 4.33349609375 , -0.129699707031 
2018/05/08 00:15:07.827935 , -0.55029296875 , -0.4921875 , 0.721435546875 , 56.377045177 , 18.4424908425 , -53.0783882784 , -3.06701660156 , 5.71441650391 , -0.373840332031 
2018/05/08 00:15:08.120362 , -0.559326171875 , -0.4697265625 , 0.69482421875 , 56.377045177 , 18.4424908425 , -53.0783882784 , -3.06701660156 , 5.71441650391 , -0.373840332031 
2018/05/08 00:15:08.412871 , -0.559326171875 , -0.4697265625 , 0.69482421875 , 56.377045177 , 18.4424908425 , -53.0783882784 , -3.06701660156 , 5.71441650391 , -0.373840332031 
2018/05/08 00:15:08.705347 , -0.559326171875 , -0.4697265625 , 0.69482421875 , 56.377045177 , 18.4424908425 , -53.0783882784 , -7.06481933594 , 5.28717041016 , -1.11389160156 
2018/05/08 00:15:08.997556 , -0.541015625 , -0.464599609375 , 0.700927734375 , 56.2271062271 , 17.8427350427 , -55.0275946276 , -7.06481933594 , 5.28717041016 , -1.11389160156 
2018/05/08 00:15:09.289985 , -0.541015625 , -0.464599609375 , 0.700927734375 , 56.2271062271 , 17.8427350427 , -55.0275946276 , -7.06481933594 , 5.28717041016 , -1.11389160156 
2018/05/08 00:15:09.582323 , -0.541015625 , -0.464599609375 , 0.700927734375 , 56.2271062271 , 17.8427350427 , -55.0275946276 , -7.06481933594 , 5.28717041016 , -1.11389160156 
2018/05/08 00:15:09.875345 , -0.541015625 , -0.464599609375 , 0.700927734375 , 56.526984127 , 17.5428571429 , -52.1787545788 , -4.2724609375 , 3.04412841797 , 0.0839233398438 
2018/05/08 00:15:10.167811 , -0.53466796875 , -0.418701171875 , 0.699462890625 , 56.526984127 , 17.5428571429 , -52.1787545788 , -4.2724609375 , 3.04412841797 , 0.0839233398438 
2018/05/08 00:15:10.460351 , -0.53466796875 , -0.418701171875 , 0.699462890625 , 56.526984127 , 17.5428571429 , -52.1787545788 , -4.2724609375 , 3.04412841797 , 0.0839233398438 
2018/05/08 00:15:10.752869 , -0.53466796875 , -0.418701171875 , 0.699462890625 , 56.526984127 , 17.5428571429 , -52.1787545788 , -4.85229492188 , 4.80651855469 , -1.10626220703 
2018/05/08 00:15:11.045358 , -0.53759765625 , -0.460693359375 , 0.73193359375 , 56.9768009768 , 17.3929181929 , -52.3286935287 , -4.85229492188 , 4.80651855469 , -1.10626220703 
2018/05/08 00:15:11.337881 , -0.53759765625 , -0.460693359375 , 0.73193359375 , 56.9768009768 , 17.3929181929 , -52.3286935287 , -4.85229492188 , 4.80651855469 , -1.10626220703 
2018/05/08 00:15:11.630301 , -0.53759765625 , -0.460693359375 , 0.73193359375 , 56.9768009768 , 17.3929181929 , -52.3286935287 , -4.85229492188 , 4.80651855469 , -1.10626220703 
2018/05/08 00:15:11.922838 , -0.50146484375 , -0.46630859375 , 0.72314453125 , 57.4266178266 , 18.7423687424 , -51.7289377289 , -5.77545166016 , 4.70733642578 , -0.823974609375 
2018/05/08 00:15:12.217554 , -0.50146484375 , -0.46630859375 , 0.72314453125 , 57.4266178266 , 18.7423687424 , -51.7289377289 , -5.77545166016 , 4.70733642578 , -0.823974609375 
2018/05/08 00:15:12.507478 , -0.50146484375 , -0.46630859375 , 0.72314453125 , 57.4266178266 , 18.7423687424 , -51.7289377289 , -5.77545166016 , 4.70733642578 , -0.823974609375 
2018/05/08 00:15:12.799753 , -0.50146484375 , -0.46630859375 , 0.72314453125 , 56.8268620269 , 17.5428571429 , -53.2283272283 , -4.10461425781 , 4.73785400391 , -0.450134277344 
2018/05/08 00:15:13.092812 , -0.5732421875 , -0.482177734375 , 0.7158203125 , 56.8268620269 , 17.5428571429 , -53.2283272283 , -4.10461425781 , 4.73785400391 , -0.450134277344 
2018/05/08 00:15:13.385329 , -0.5732421875 , -0.482177734375 , 0.7158203125 , 56.8268620269 , 17.5428571429 , -53.2283272283 , -4.10461425781 , 4.73785400391 , -0.450134277344 
2018/05/08 00:15:13.677843 , -0.5732421875 , -0.482177734375 , 0.7158203125 , 56.8268620269 , 17.5428571429 , -53.2283272283 , -4.10461425781 , 4.73785400391 , -0.450134277344 
2018/05/08 00:15:13.971302 , -0.571044921875 , -0.4794921875 , 0.699462890625 , 56.377045177 , 16.3433455433 , -53.0783882784 , -5.27954101562 , 4.07409667969 , 0.480651855469 
2018/05/08 00:15:14.262836 , -0.571044921875 , -0.4794921875 , 0.699462890625 , 56.377045177 , 16.3433455433 , -53.0783882784 , -5.27954101562 , 4.07409667969 , 0.480651855469 
2018/05/08 00:15:14.555360 , -0.571044921875 , -0.4794921875 , 0.699462890625 , 56.377045177 , 16.3433455433 , -53.0783882784 , -5.27954101562 , 4.07409667969 , 0.480651855469 
2018/05/08 00:15:14.847748 , -0.571044921875 , -0.4794921875 , 0.699462890625 , 54.5777777778 , 17.3929181929 , -53.8280830281 , -3.55529785156 , 5.08880615234 , -1.44195556641 
2018/05/08 00:15:15.140346 , -0.532958984375 , -0.510498046875 , 0.6875 , 54.5777777778 , 17.3929181929 , -53.8280830281 , -3.55529785156 , 5.08880615234 , -1.44195556641 
2018/05/08 00:15:15.432514 , -0.532958984375 , -0.510498046875 , 0.6875 , 54.5777777778 , 17.3929181929 , -53.8280830281 , -3.55529785156 , 5.08880615234 , -1.44195556641 
2018/05/08 00:15:15.725823 , -0.532958984375 , -0.510498046875 , 0.6875 , 54.5777777778 , 17.3929181929 , -53.8280830281 , -2.75421142578 , 5.07354736328 , -0.312805175781 
2018/05/08 00:15:16.017400 , -0.536865234375 , -0.45166015625 , 0.6923828125 , 55.3274725275 , 15.8935286935 , -53.0783882784 , -2.75421142578 , 5.07354736328 , -0.312805175781 
2018/05/08 00:15:16.310018 , -0.536865234375 , -0.45166015625 , 0.6923828125 , 55.3274725275 , 15.8935286935 , -53.0783882784 , -2.75421142578 , 5.07354736328 , -0.312805175781 
2018/05/08 00:15:16.602914 , -0.536865234375 , -0.45166015625 , 0.6923828125 , 55.3274725275 , 15.8935286935 , -53.0783882784 , -2.75421142578 , 5.07354736328 , -0.312805175781 
2018/05/08 00:15:16.895315 , -0.56591796875 , -0.457275390625 , 0.666259765625 , 56.2271062271 , 18.2925518926 , -53.978021978 , -4.24957275391 , 5.59234619141 , -0.0457763671875 
2018/05/08 00:15:17.187871 , -0.56591796875 , -0.457275390625 , 0.666259765625 , 56.2271062271 , 18.2925518926 , -53.978021978 , -4.24957275391 , 5.59234619141 , -0.0457763671875 
2018/05/08 00:15:17.480332 , -0.56591796875 , -0.457275390625 , 0.666259765625 , 56.2271062271 , 18.2925518926 , -53.978021978 , -4.24957275391 , 5.59234619141 , -0.0457763671875 
2018/05/08 00:15:17.772793 , -0.56591796875 , -0.457275390625 , 0.666259765625 , 56.2271062271 , 18.2925518926 , -53.978021978 , -4.79888916016 , 4.06646728516 , -0.831604003906 
2018/05/08 00:15:18.114021 , -0.539306640625 , -0.458740234375 , 0.67138671875 , 57.2766788767 , 16.7931623932 , -52.9284493284 , -4.79888916016 , 4.06646728516 , -0.831604003906 
2018/05/08 00:15:18.406692 , -0.539306640625 , -0.458740234375 , 0.67138671875 , 57.2766788767 , 16.7931623932 , -52.9284493284 , -4.79888916016 , 4.06646728516 , -0.831604003906 
2018/05/08 00:15:18.698858 , -0.539306640625 , -0.458740234375 , 0.67138671875 , 57.2766788767 , 16.7931623932 , -52.9284493284 , -1.19018554688 , 3.69262695312 , 0.198364257812 
2018/05/08 00:15:18.991618 , -0.557861328125 , -0.4384765625 , 0.7080078125 , 55.7772893773 , 17.5428571429 , -53.978021978 , -1.19018554688 , 3.69262695312 , 0.198364257812 
2018/05/08 00:15:19.283944 , -0.557861328125 , -0.4384765625 , 0.7080078125 , 55.7772893773 , 17.5428571429 , -53.978021978 , -1.19018554688 , 3.69262695312 , 0.198364257812 
2018/05/08 00:15:19.576708 , -0.557861328125 , -0.4384765625 , 0.7080078125 , 55.7772893773 , 17.5428571429 , -53.978021978 , -1.19018554688 , 3.69262695312 , 0.198364257812 
2018/05/08 00:15:19.869069 , -0.557861328125 , -0.4384765625 , 0.7080078125 , 56.6769230769 , 16.3433455433 , -51.7289377289 , -8.24737548828 , 6.88171386719 , -1.88446044922 
2018/05/08 00:15:20.161569 , -0.48681640625 , -0.475830078125 , 0.689208984375 , 56.6769230769 , 16.3433455433 , -51.7289377289 , -8.24737548828 , 6.88171386719 , -1.88446044922 
2018/05/08 00:15:20.454083 , -0.48681640625 , -0.475830078125 , 0.689208984375 , 56.6769230769 , 16.3433455433 , -51.7289377289 , -8.24737548828 , 6.88171386719 , -1.88446044922 
2018/05/08 00:15:20.746607 , -0.48681640625 , -0.475830078125 , 0.689208984375 , 56.6769230769 , 16.3433455433 , -51.7289377289 , -4.16564941406 , 6.53076171875 , -0.999450683594 
2018/05/08 00:15:21.039026 , -0.55322265625 , -0.48681640625 , 0.728515625 , 55.3274725275 , 18.4424908425 , -52.3286935287 , -4.16564941406 , 6.53076171875 , -0.999450683594 
2018/05/08 00:15:21.331371 , -0.55322265625 , -0.48681640625 , 0.728515625 , 55.3274725275 , 18.4424908425 , -52.3286935287 , -4.16564941406 , 6.53076171875 , -0.999450683594 
2018/05/08 00:15:21.624046 , -0.55322265625 , -0.48681640625 , 0.728515625 , 55.3274725275 , 18.4424908425 , -52.3286935287 , -4.16564941406 , 6.53076171875 , -0.999450683594 
2018/05/08 00:15:21.916446 , -0.559326171875 , -0.444580078125 , 0.70751953125 , 56.526984127 , 18.2925518926 , -52.9284493284 , -3.54766845703 , 4.98199462891 , -1.48773193359 
2018/05/08 00:15:22.208997 , -0.559326171875 , -0.444580078125 , 0.70751953125 , 56.526984127 , 18.2925518926 , -52.9284493284 , -3.54766845703 , 4.98199462891 , -1.48773193359 
2018/05/08 00:15:22.501604 , -0.559326171875 , -0.444580078125 , 0.70751953125 , 56.526984127 , 18.2925518926 , -52.9284493284 , -3.54766845703 , 4.98199462891 , -1.48773193359 
2018/05/08 00:15:22.793627 , -0.559326171875 , -0.444580078125 , 0.70751953125 , 55.6273504274 , 16.6432234432 , -53.3782661783 , -3.03649902344 , 5.50842285156 , -1.61743164062 
2018/05/08 00:15:23.086283 , -0.58447265625 , -0.447265625 , 0.709228515625 , 55.6273504274 , 16.6432234432 , -53.3782661783 , -3.03649902344 , 5.50842285156 , -1.61743164062 
2018/05/08 00:15:23.378992 , -0.58447265625 , -0.447265625 , 0.709228515625 , 55.6273504274 , 16.6432234432 , -53.3782661783 , -3.03649902344 , 5.50842285156 , -1.61743164062 
2018/05/08 00:15:23.671504 , -0.58447265625 , -0.447265625 , 0.709228515625 , 55.6273504274 , 16.6432234432 , -53.3782661783 , -3.03649902344 , 5.50842285156 , -1.61743164062 
2018/05/08 00:15:23.964009 , -0.521240234375 , -0.456787109375 , 0.70166015625 , 55.3274725275 , 17.3929181929 , -52.3286935287 , -4.48608398438 , 5.56945800781 , 0.373840332031 
2018/05/08 00:15:24.256563 , -0.521240234375 , -0.456787109375 , 0.70166015625 , 55.3274725275 , 17.3929181929 , -52.3286935287 , -4.48608398438 , 5.56945800781 , 0.373840332031 
2018/05/08 00:15:24.548749 , -0.521240234375 , -0.456787109375 , 0.70166015625 , 55.3274725275 , 17.3929181929 , -52.3286935287 , -4.48608398438 , 5.56945800781 , 0.373840332031 
2018/05/08 00:15:24.841434 , -0.521240234375 , -0.456787109375 , 0.70166015625 , 56.8268620269 , 16.7931623932 , -52.1787545788 , -4.47845458984 , 5.51605224609 , -0.778198242188 
2018/05/08 00:15:25.133801 , -0.59375 , -0.467529296875 , 0.69921875 , 56.8268620269 , 16.7931623932 , -52.1787545788 , -4.47845458984 , 5.51605224609 , -0.778198242188 
2018/05/08 00:15:25.426486 , -0.59375 , -0.467529296875 , 0.69921875 , 56.8268620269 , 16.7931623932 , -52.1787545788 , -4.47845458984 , 5.51605224609 , -0.778198242188 
2018/05/08 00:15:25.718899 , -0.59375 , -0.467529296875 , 0.69921875 , 56.8268620269 , 16.7931623932 , -52.1787545788 , -2.86102294922 , 2.54058837891 , -1.17492675781 
2018/05/08 00:15:26.011405 , -0.55029296875 , -0.46044921875 , 0.70654296875 , 55.9272283272 , 16.6432234432 , -51.7289377289 , -2.86102294922 , 2.54058837891 , -1.17492675781 
2018/05/08 00:15:26.303894 , -0.55029296875 , -0.46044921875 , 0.70654296875 , 55.9272283272 , 16.6432234432 , -51.7289377289 , -2.86102294922 , 2.54058837891 , -1.17492675781 
2018/05/08 00:15:26.596454 , -0.55029296875 , -0.46044921875 , 0.70654296875 , 55.9272283272 , 16.6432234432 , -51.7289377289 , -2.86102294922 , 2.54058837891 , -1.17492675781 
2018/05/08 00:15:26.888870 , -0.56884765625 , -0.47607421875 , 0.716064453125 , 56.2271062271 , 17.8427350427 , -52.9284493284 , -6.07299804688 , 5.88989257812 , -0.877380371094 
2018/05/08 00:15:27.181272 , -0.56884765625 , -0.47607421875 , 0.716064453125 , 56.2271062271 , 17.8427350427 , -52.9284493284 , -6.07299804688 , 5.88989257812 , -0.877380371094 
2018/05/08 00:15:27.473889 , -0.56884765625 , -0.47607421875 , 0.716064453125 , 56.2271062271 , 17.8427350427 , -52.9284493284 , -6.07299804688 , 5.88989257812 , -0.877380371094 
2018/05/08 00:15:27.766191 , -0.56884765625 , -0.47607421875 , 0.716064453125 , 56.2271062271 , 17.8427350427 , -52.9284493284 , -4.65393066406 , 4.30297851562 , 0.228881835938 
2018/05/08 00:15:28.058918 , -0.5625 , -0.4423828125 , 0.730224609375 , 57.2766788767 , 16.7931623932 , -51.578998779 , -4.65393066406 , 4.30297851562 , 0.228881835938 
2018/05/08 00:15:28.351386 , -0.5625 , -0.4423828125 , 0.730224609375 , 57.2766788767 , 16.7931623932 , -51.578998779 , -4.65393066406 , 4.30297851562 , 0.228881835938 
2018/05/08 00:15:28.643897 , -0.5625 , -0.4423828125 , 0.730224609375 , 57.2766788767 , 16.7931623932 , -51.578998779 , -4.65393066406 , 4.30297851562 , 0.228881835938 
2018/05/08 00:15:28.936506 , -0.50390625 , -0.50390625 , 0.72998046875 , 55.7772893773 , 17.5428571429 , -54.5777777778 , -6.00433349609 , 5.59234619141 , 0.0228881835938 
2018/05/08 00:15:29.236460 , -0.50390625 , -0.50390625 , 0.72998046875 , 55.7772893773 , 17.5428571429 , -54.5777777778 , -6.00433349609 , 5.59234619141 , 0.0228881835938 
2018/05/08 00:15:29.521040 , -0.50390625 , -0.50390625 , 0.72998046875 , 55.7772893773 , 17.5428571429 , -54.5777777778 , -6.00433349609 , 5.59234619141 , 0.0228881835938 
2018/05/08 00:15:29.813480 , -0.50390625 , -0.50390625 , 0.72998046875 , 55.3274725275 , 16.6432234432 , -53.0783882784 , -3.86810302734 , 4.04357910156 , 0.480651855469 
2018/05/08 00:15:30.106412 , -0.5830078125 , -0.48291015625 , 0.703125 , 55.3274725275 , 16.6432234432 , -53.0783882784 , -3.86810302734 , 4.04357910156 , 0.480651855469 
2018/05/08 00:15:30.398573 , -0.5830078125 , -0.48291015625 , 0.703125 , 55.3274725275 , 16.6432234432 , -53.0783882784 , -3.86810302734 , 4.04357910156 , 0.480651855469 
2018/05/08 00:15:30.691297 , -0.5830078125 , -0.48291015625 , 0.703125 , 55.3274725275 , 16.6432234432 , -53.0783882784 , -4.71496582031 , 4.40979003906 , 1.15203857422 
2018/05/08 00:15:30.983651 , -0.532470703125 , -0.474365234375 , 0.694580078125 , 55.6273504274 , 18.4424908425 , -52.3286935287 , -4.71496582031 , 4.40979003906 , 1.15203857422 
2018/05/08 00:15:31.276414 , -0.532470703125 , -0.474365234375 , 0.694580078125 , 55.6273504274 , 18.4424908425 , -52.3286935287 , -4.71496582031 , 4.40979003906 , 1.15203857422 
2018/05/08 00:15:31.568758 , -0.532470703125 , -0.474365234375 , 0.694580078125 , 55.6273504274 , 18.4424908425 , -52.3286935287 , -4.71496582031 , 4.40979003906 , 1.15203857422 
2018/05/08 00:15:31.861305 , -0.532470703125 , -0.474365234375 , 0.694580078125 , 55.6273504274 , 18.4424908425 , -52.3286935287 , -4.47082519531 , 5.22613525391 , 0.656127929688 
2018/05/08 00:15:32.153820 , -0.58447265625 , -0.47216796875 , 0.66748046875 , 55.6273504274 , 18.4424908425 , -52.3286935287 , -4.47082519531 , 5.22613525391 , 0.656127929688 
2018/05/08 00:15:32.446456 , -0.58447265625 , -0.47216796875 , 0.66748046875 , 55.6273504274 , 18.4424908425 , -52.3286935287 , -4.47082519531 , 5.22613525391 , 0.656127929688 
2018/05/08 00:15:32.738886 , -0.58447265625 , -0.47216796875 , 0.66748046875 , 55.6273504274 , 18.4424908425 , -52.3286935287 , -5.76019287109 , 4.78363037109 , 1.25885009766 
2018/05/08 00:15:33.031192 , -0.58154296875 , -0.4638671875 , 0.69580078125 , 55.6273504274 , 17.3929181929 , -53.3782661783 , -5.76019287109 , 4.78363037109 , 1.25885009766 
2018/05/08 00:15:33.323773 , -0.58154296875 , -0.4638671875 , 0.69580078125 , 55.6273504274 , 17.3929181929 , -53.3782661783 , -5.76019287109 , 4.78363037109 , 1.25885009766 
2018/05/08 00:15:33.616070 , -0.58154296875 , -0.4638671875 , 0.69580078125 , 55.6273504274 , 17.3929181929 , -53.3782661783 , -5.76019287109 , 4.78363037109 , 1.25885009766 
2018/05/08 00:15:33.908790 , -0.558349609375 , -0.446533203125 , 0.684326171875 , 57.5765567766 , 20.0918192918 , -55.0275946276 , -4.62341308594 , 5.18035888672 , -0.587463378906 
2018/05/08 00:15:34.201251 , -0.558349609375 , -0.446533203125 , 0.684326171875 , 57.5765567766 , 20.0918192918 , -55.0275946276 , -4.62341308594 , 5.18035888672 , -0.587463378906 
2018/05/08 00:15:34.493774 , -0.558349609375 , -0.446533203125 , 0.684326171875 , 57.5765567766 , 20.0918192918 , -55.0275946276 , -4.62341308594 , 5.18035888672 , -0.587463378906 
2018/05/08 00:15:34.786397 , -0.558349609375 , -0.446533203125 , 0.684326171875 , 55.3274725275 , 18.1426129426 , -53.3782661783 , -5.40161132812 , 4.13513183594 , -1.22833251953 
2018/05/08 00:15:35.078783 , -0.52783203125 , -0.43017578125 , 0.669921875 , 55.3274725275 , 18.1426129426 , -53.3782661783 , -5.40161132812 , 4.13513183594 , -1.22833251953 
2018/05/08 00:15:35.371274 , -0.52783203125 , -0.43017578125 , 0.669921875 , 55.3274725275 , 18.1426129426 , -53.3782661783 , -5.40161132812 , 4.13513183594 , -1.22833251953 
2018/05/08 00:15:35.663746 , -0.52783203125 , -0.43017578125 , 0.669921875 , 55.3274725275 , 18.1426129426 , -53.3782661783 , -5.40161132812 , 4.13513183594 , -1.22833251953 
2018/05/08 00:15:35.956407 , -0.57373046875 , -0.408203125 , 0.68896484375 , 55.3274725275 , 18.1426129426 , -53.3782661783 , -4.93621826172 , 5.57708740234 , 1.09100341797 
2018/05/08 00:15:36.248260 , -0.57373046875 , -0.408203125 , 0.68896484375 , 55.3274725275 , 18.1426129426 , -53.3782661783 , -4.93621826172 , 5.57708740234 , 1.09100341797 
2018/05/08 00:15:36.540857 , -0.57373046875 , -0.408203125 , 0.68896484375 , 55.3274725275 , 18.1426129426 , -53.3782661783 , -4.93621826172 , 5.57708740234 , 1.09100341797 
2018/05/08 00:15:36.833221 , -0.57373046875 , -0.408203125 , 0.68896484375 , 56.8268620269 , 18.2925518926 , -53.2283272283 , -2.74658203125 , 3.61633300781 , -0.518798828125 
2018/05/08 00:15:37.126329 , -0.56982421875 , -0.4423828125 , 0.720703125 , 56.8268620269 , 18.2925518926 , -53.2283272283 , -2.74658203125 , 3.61633300781 , -0.518798828125 
2018/05/08 00:15:37.418731 , -0.56982421875 , -0.4423828125 , 0.720703125 , 56.8268620269 , 18.2925518926 , -53.2283272283 , -2.74658203125 , 3.61633300781 , -0.518798828125 
2018/05/08 00:15:37.711158 , -0.56982421875 , -0.4423828125 , 0.720703125 , 56.8268620269 , 18.2925518926 , -53.2283272283 , -4.42504882812 , 5.38635253906 , -1.43432617188 
2018/05/08 00:15:38.003713 , -0.554443359375 , -0.46630859375 , 0.708984375 , 56.526984127 , 15.7435897436 , -53.978021978 , -4.42504882812 , 5.38635253906 , -1.43432617188 
2018/05/08 00:15:38.297121 , -0.554443359375 , -0.46630859375 , 0.708984375 , 56.526984127 , 15.7435897436 , -53.978021978 , -4.42504882812 , 5.38635253906 , -1.43432617188 
2018/05/08 00:15:38.588691 , -0.554443359375 , -0.46630859375 , 0.708984375 , 56.526984127 , 15.7435897436 , -53.978021978 , -4.42504882812 , 5.38635253906 , -1.43432617188 
2018/05/08 00:15:38.881045 , -0.557373046875 , -0.4541015625 , 0.612060546875 , 56.6769230769 , 16.3433455433 , -51.7289377289 , -5.88989257812 , 4.69207763672 , 0.42724609375 
2018/05/08 00:15:39.173675 , -0.557373046875 , -0.4541015625 , 0.612060546875 , 56.6769230769 , 16.3433455433 , -51.7289377289 , -5.88989257812 , 4.69207763672 , 0.42724609375 
2018/05/08 00:15:39.466037 , -0.557373046875 , -0.4541015625 , 0.612060546875 , 56.6769230769 , 16.3433455433 , -51.7289377289 , -5.88989257812 , 4.69207763672 , 0.42724609375 
2018/05/08 00:15:39.758763 , -0.557373046875 , -0.4541015625 , 0.612060546875 , 56.6769230769 , 16.3433455433 , -51.7289377289 , -3.99017333984 , 6.36291503906 , -0.679016113281 
2018/05/08 00:15:40.051080 , -0.551513671875 , -0.48779296875 , 0.677001953125 , 56.8268620269 , 15.7435897436 , -53.5282051282 , -3.99017333984 , 6.36291503906 , -0.679016113281 
2018/05/08 00:15:40.343628 , -0.551513671875 , -0.48779296875 , 0.677001953125 , 56.8268620269 , 15.7435897436 , -53.5282051282 , -3.99017333984 , 6.36291503906 , -0.679016113281 
2018/05/08 00:15:40.636126 , -0.551513671875 , -0.48779296875 , 0.677001953125 , 56.8268620269 , 15.7435897436 , -53.5282051282 , -3.99017333984 , 6.36291503906 , -0.679016113281 
2018/05/08 00:15:40.928567 , -0.535888671875 , -0.4619140625 , 0.682861328125 , 56.377045177 , 17.6927960928 , -53.0783882784 , -3.69262695312 , 5.39398193359 , 0.564575195312 
2018/05/08 00:15:41.221062 , -0.535888671875 , -0.4619140625 , 0.682861328125 , 56.377045177 , 17.6927960928 , -53.0783882784 , -3.69262695312 , 5.39398193359 , 0.564575195312 
2018/05/08 00:15:41.513512 , -0.535888671875 , -0.4619140625 , 0.682861328125 , 56.377045177 , 17.6927960928 , -53.0783882784 , -3.69262695312 , 5.39398193359 , 0.564575195312 
2018/05/08 00:15:41.806177 , -0.535888671875 , -0.4619140625 , 0.682861328125 , 57.4266178266 , 19.1921855922 , -52.3286935287 , -4.86755371094 , 5.90515136719 , 0.228881835938 
2018/05/08 00:15:42.098304 , -0.521484375 , -0.452880859375 , 0.694580078125 , 57.4266178266 , 19.1921855922 , -52.3286935287 , -4.86755371094 , 5.90515136719 , 0.228881835938 
2018/05/08 00:15:42.391017 , -0.521484375 , -0.452880859375 , 0.694580078125 , 57.4266178266 , 19.1921855922 , -52.3286935287 , -4.86755371094 , 5.90515136719 , 0.228881835938 
2018/05/08 00:15:42.683372 , -0.521484375 , -0.452880859375 , 0.694580078125 , 57.4266178266 , 19.1921855922 , -52.3286935287 , -4.86755371094 , 5.90515136719 , 0.228881835938 
2018/05/08 00:15:42.975841 , -0.562744140625 , -0.460205078125 , 0.748046875 , 55.3274725275 , 17.093040293 , -51.4290598291 , -3.77655029297 , 4.23431396484 , 1.46484375 
2018/05/08 00:15:43.268184 , -0.562744140625 , -0.460205078125 , 0.748046875 , 55.3274725275 , 17.093040293 , -51.4290598291 , -3.77655029297 , 4.23431396484 , 1.46484375 
2018/05/08 00:15:43.560574 , -0.562744140625 , -0.460205078125 , 0.748046875 , 55.3274725275 , 17.093040293 , -51.4290598291 , -3.77655029297 , 4.23431396484 , 1.46484375 
2018/05/08 00:15:43.853465 , -0.562744140625 , -0.460205078125 , 0.748046875 , 57.7264957265 , 18.1426129426 , -51.7289377289 , -4.50134277344 , 3.82995605469 , -0.694274902344 
2018/05/08 00:15:44.145996 , -0.629150390625 , -0.45751953125 , 0.692626953125 , 57.7264957265 , 18.1426129426 , -51.7289377289 , -4.50134277344 , 3.82995605469 , -0.694274902344 
2018/05/08 00:15:44.438448 , -0.629150390625 , -0.45751953125 , 0.692626953125 , 57.7264957265 , 18.1426129426 , -51.7289377289 , -4.50134277344 , 3.82995605469 , -0.694274902344 
2018/05/08 00:15:44.730747 , -0.629150390625 , -0.45751953125 , 0.692626953125 , 57.7264957265 , 18.1426129426 , -51.7289377289 , -4.28009033203 , 3.49426269531 , -0.106811523438 
2018/05/08 00:15:45.023424 , -0.58154296875 , -0.44091796875 , 0.732421875 , 56.8268620269 , 18.8923076923 , -52.6285714286 , -4.28009033203 , 3.49426269531 , -0.106811523438 
2018/05/08 00:15:45.315325 , -0.58154296875 , -0.44091796875 , 0.732421875 , 56.8268620269 , 18.8923076923 , -52.6285714286 , -4.28009033203 , 3.49426269531 , -0.106811523438 
2018/05/08 00:15:45.608119 , -0.58154296875 , -0.44091796875 , 0.732421875 , 56.8268620269 , 18.8923076923 , -52.6285714286 , -4.28009033203 , 3.49426269531 , -0.106811523438 
2018/05/08 00:15:45.900905 , -0.581787109375 , -0.472412109375 , 0.715576171875 , 55.7772893773 , 18.2925518926 , -53.2283272283 , -3.15856933594 , 5.92803955078 , -0.495910644531 
2018/05/08 00:15:46.193356 , -0.581787109375 , -0.472412109375 , 0.715576171875 , 55.7772893773 , 18.2925518926 , -53.2283272283 , -3.15856933594 , 5.92803955078 , -0.495910644531 
2018/05/08 00:15:46.486036 , -0.581787109375 , -0.472412109375 , 0.715576171875 , 55.7772893773 , 18.2925518926 , -53.2283272283 , -3.15856933594 , 5.92803955078 , -0.495910644531 
2018/05/08 00:15:46.778330 , -0.581787109375 , -0.472412109375 , 0.715576171875 , 55.7772893773 , 18.2925518926 , -53.2283272283 , -5.64575195312 , 6.09588623047 , -1.36566162109 
2018/05/08 00:15:47.070864 , -0.545166015625 , -0.483154296875 , 0.672119140625 , 56.9768009768 , 17.3929181929 , -52.3286935287 , -5.64575195312 , 6.09588623047 , -1.36566162109 
2018/05/08 00:15:47.363363 , -0.545166015625 , -0.483154296875 , 0.672119140625 , 56.9768009768 , 17.3929181929 , -52.3286935287 , -5.64575195312 , 6.09588623047 , -1.36566162109 
2018/05/08 00:15:47.655938 , -0.545166015625 , -0.483154296875 , 0.672119140625 , 56.9768009768 , 17.3929181929 , -52.3286935287 , -5.64575195312 , 6.09588623047 , -1.36566162109 
2018/05/08 00:15:47.948080 , -0.544677734375 , -0.47802734375 , 0.67431640625 , 57.5765567766 , 17.5428571429 , -52.9284493284 , -4.80651855469 , 4.91333007812 , -1.15966796875 
2018/05/08 00:15:48.240795 , -0.544677734375 , -0.47802734375 , 0.67431640625 , 57.5765567766 , 17.5428571429 , -52.9284493284 , -4.80651855469 , 4.91333007812 , -1.15966796875 
2018/05/08 00:15:48.533198 , -0.544677734375 , -0.47802734375 , 0.67431640625 , 57.5765567766 , 17.5428571429 , -52.9284493284 , -4.80651855469 , 4.91333007812 , -1.15966796875 
2018/05/08 00:15:48.826032 , -0.544677734375 , -0.47802734375 , 0.67431640625 , 55.3274725275 , 18.4424908425 , -52.0288156288 , -4.16564941406 , 5.65338134766 , -0.579833984375 
2018/05/08 00:15:49.118387 , -0.474853515625 , -0.4453125 , 0.686279296875 , 55.3274725275 , 18.4424908425 , -52.0288156288 , -4.16564941406 , 5.65338134766 , -0.579833984375 
2018/05/08 00:15:49.410853 , -0.474853515625 , -0.4453125 , 0.686279296875 , 55.3274725275 , 18.4424908425 , -52.0288156288 , -4.16564941406 , 5.65338134766 , -0.579833984375 
2018/05/08 00:15:49.703048 , -0.474853515625 , -0.4453125 , 0.686279296875 , 55.3274725275 , 18.4424908425 , -52.0288156288 , -4.95147705078 , 4.55474853516 , 0.419616699219 
2018/05/08 00:15:49.995601 , -0.53076171875 , -0.43896484375 , 0.669677734375 , 55.6273504274 , 18.1426129426 , -53.0783882784 , -4.95147705078 , 4.55474853516 , 0.419616699219 
2018/05/08 00:15:50.337381 , -0.53076171875 , -0.43896484375 , 0.669677734375 , 55.6273504274 , 18.1426129426 , -53.0783882784 , -4.95147705078 , 4.55474853516 , 0.419616699219 
2018/05/08 00:15:50.629556 , -0.53076171875 , -0.43896484375 , 0.669677734375 , 55.6273504274 , 18.1426129426 , -53.0783882784 , -4.95147705078 , 4.55474853516 , 0.419616699219 
2018/05/08 00:15:50.922061 , -0.563720703125 , -0.473388671875 , 0.689208984375 , 56.9768009768 , 18.1426129426 , -53.0783882784 , -5.22613525391 , 5.63049316406 , -1.43432617188 
2018/05/08 00:15:51.214584 , -0.563720703125 , -0.473388671875 , 0.689208984375 , 56.9768009768 , 18.1426129426 , -53.0783882784 , -5.22613525391 , 5.63049316406 , -1.43432617188 
2018/05/08 00:15:51.507220 , -0.563720703125 , -0.473388671875 , 0.689208984375 , 56.9768009768 , 18.1426129426 , -53.0783882784 , -5.22613525391 , 5.63049316406 , -1.43432617188 
2018/05/08 00:15:51.799543 , -0.563720703125 , -0.473388671875 , 0.689208984375 , 56.377045177 , 18.1426129426 , -53.0783882784 , -5.44738769531 , 2.66265869141 , -0.0228881835938 
2018/05/08 00:15:52.092086 , -0.521484375 , -0.474365234375 , 0.725341796875 , 56.377045177 , 18.1426129426 , -53.0783882784 , -5.44738769531 , 2.66265869141 , -0.0228881835938 
2018/05/08 00:15:52.384570 , -0.521484375 , -0.474365234375 , 0.725341796875 , 56.377045177 , 18.1426129426 , -53.0783882784 , -5.44738769531 , 2.66265869141 , -0.0228881835938 
2018/05/08 00:15:52.677128 , -0.521484375 , -0.474365234375 , 0.725341796875 , 56.377045177 , 18.1426129426 , -53.0783882784 , -5.44738769531 , 2.66265869141 , -0.0228881835938 
2018/05/08 00:15:52.969650 , -0.546142578125 , -0.4755859375 , 0.716552734375 , 54.8776556777 , 17.6927960928 , -53.0783882784 , -3.21960449219 , 4.34875488281 , -2.41088867188 
2018/05/08 00:15:53.261746 , -0.546142578125 , -0.4755859375 , 0.716552734375 , 54.8776556777 , 17.6927960928 , -53.0783882784 , -3.21960449219 , 4.34875488281 , -2.41088867188 
2018/05/08 00:15:53.554344 , -0.546142578125 , -0.4755859375 , 0.716552734375 , 54.8776556777 , 17.6927960928 , -53.0783882784 , -3.21960449219 , 4.34875488281 , -2.41088867188 
2018/05/08 00:15:53.846790 , -0.546142578125 , -0.4755859375 , 0.716552734375 , 56.2271062271 , 17.8427350427 , -51.2791208791 , -3.66973876953 , 4.55474853516 , -0.0152587890625 
2018/05/08 00:15:54.139205 , -0.60546875 , -0.41552734375 , 0.6982421875 , 56.2271062271 , 17.8427350427 , -51.2791208791 , -3.66973876953 , 4.55474853516 , -0.0152587890625 
2018/05/08 00:15:54.431443 , -0.60546875 , -0.41552734375 , 0.6982421875 , 56.2271062271 , 17.8427350427 , -51.2791208791 , -3.66973876953 , 4.55474853516 , -0.0152587890625 
2018/05/08 00:15:54.724353 , -0.60546875 , -0.41552734375 , 0.6982421875 , 56.2271062271 , 17.8427350427 , -51.2791208791 , -5.41687011719 , 6.15692138672 , 0.18310546875 
2018/05/08 00:15:55.016706 , -0.5576171875 , -0.435791015625 , 0.67138671875 , 56.8268620269 , 16.7931623932 , -53.2283272283 , -5.41687011719 , 6.15692138672 , 0.18310546875 
2018/05/08 00:15:55.309045 , -0.5576171875 , -0.435791015625 , 0.67138671875 , 56.8268620269 , 16.7931623932 , -53.2283272283 , -5.41687011719 , 6.15692138672 , 0.18310546875 
2018/05/08 00:15:55.601543 , -0.5576171875 , -0.435791015625 , 0.67138671875 , 56.8268620269 , 16.7931623932 , -53.2283272283 , -5.41687011719 , 6.15692138672 , 0.18310546875 
2018/05/08 00:15:55.894015 , -0.575927734375 , -0.484130859375 , 0.70458984375 , 58.0263736264 , 17.093040293 , -53.0783882784 , -5.47790527344 , 5.22613525391 , -0.579833984375 
2018/05/08 00:15:56.187106 , -0.575927734375 , -0.484130859375 , 0.70458984375 , 58.0263736264 , 17.093040293 , -53.0783882784 , -5.47790527344 , 5.22613525391 , -0.579833984375 
2018/05/08 00:15:56.479349 , -0.575927734375 , -0.484130859375 , 0.70458984375 , 58.0263736264 , 17.093040293 , -53.0783882784 , -5.47790527344 , 5.22613525391 , -0.579833984375 
2018/05/08 00:15:56.771488 , -0.575927734375 , -0.484130859375 , 0.70458984375 , 58.0263736264 , 17.093040293 , -53.0783882784 , -2.75421142578 , 6.23321533203 , 0.0991821289062 
2018/05/08 00:15:57.063717 , -0.529052734375 , -0.477294921875 , 0.721435546875 , 57.2766788767 , 18.8923076923 , -53.2283272283 , -2.75421142578 , 6.23321533203 , 0.0991821289062 
2018/05/08 00:15:57.356874 , -0.529052734375 , -0.477294921875 , 0.721435546875 , 57.2766788767 , 18.8923076923 , -53.2283272283 , -2.75421142578 , 6.23321533203 , 0.0991821289062 
2018/05/08 00:15:57.649015 , -0.529052734375 , -0.477294921875 , 0.721435546875 , 57.2766788767 , 18.8923076923 , -53.2283272283 , -2.75421142578 , 6.23321533203 , 0.0991821289062 
2018/05/08 00:15:57.941740 , -0.524658203125 , -0.450439453125 , 0.680419921875 , 56.6769230769 , 18.4424908425 , -52.0288156288 , -3.70025634766 , 5.13458251953 , -1.60217285156 
2018/05/08 00:15:58.234261 , -0.524658203125 , -0.450439453125 , 0.680419921875 , 56.6769230769 , 18.4424908425 , -52.0288156288 , -3.70025634766 , 5.13458251953 , -1.60217285156 
2018/05/08 00:15:58.526828 , -0.524658203125 , -0.450439453125 , 0.680419921875 , 56.6769230769 , 18.4424908425 , -52.0288156288 , -3.70025634766 , 5.13458251953 , -1.60217285156 
2018/05/08 00:15:58.819191 , -0.524658203125 , -0.450439453125 , 0.680419921875 , 56.9768009768 , 18.4424908425 , -52.3286935287 , -3.86047363281 , 3.76129150391 , -0.732421875 
2018/05/08 00:15:59.111643 , -0.57373046875 , -0.47216796875 , 0.73681640625 , 56.9768009768 , 18.4424908425 , -52.3286935287 , -3.86047363281 , 3.76129150391 , -0.732421875 
2018/05/08 00:15:59.404132 , -0.57373046875 , -0.47216796875 , 0.73681640625 , 56.9768009768 , 18.4424908425 , -52.3286935287 , -3.86047363281 , 3.76129150391 , -0.732421875 
2018/05/08 00:15:59.696669 , -0.57373046875 , -0.47216796875 , 0.73681640625 , 56.9768009768 , 18.4424908425 , -52.3286935287 , -4.33349609375 , 5.16510009766 , 0.396728515625 
2018/05/08 00:15:59.989103 , -0.5087890625 , -0.4326171875 , 0.673828125 , 56.377045177 , 18.7423687424 , -51.7289377289 , -4.33349609375 , 5.16510009766 , 0.396728515625 
2018/05/08 00:16:00.281312 , -0.5087890625 , -0.4326171875 , 0.673828125 , 56.377045177 , 18.7423687424 , -51.7289377289 , -4.33349609375 , 5.16510009766 , 0.396728515625 
2018/05/08 00:16:00.574071 , -0.5087890625 , -0.4326171875 , 0.673828125 , 56.377045177 , 18.7423687424 , -51.7289377289 , -4.33349609375 , 5.16510009766 , 0.396728515625 
2018/05/08 00:16:00.866643 , -0.5087890625 , -0.4326171875 , 0.673828125 , 56.526984127 , 17.5428571429 , -52.6285714286 , -5.01251220703 , 3.31115722656 , -1.71661376953 
2018/05/08 00:16:01.159047 , -0.58837890625 , -0.459716796875 , 0.687744140625 , 56.526984127 , 17.5428571429 , -52.6285714286 , -5.01251220703 , 3.31115722656 , -1.71661376953 
2018/05/08 00:16:01.451586 , -0.58837890625 , -0.459716796875 , 0.687744140625 , 56.526984127 , 17.5428571429 , -52.6285714286 , -5.01251220703 , 3.31115722656 , -1.71661376953 
2018/05/08 00:16:01.744024 , -0.58837890625 , -0.459716796875 , 0.687744140625 , 56.526984127 , 17.5428571429 , -52.6285714286 , -5.28717041016 , 3.76892089844 , -1.86157226562 
2018/05/08 00:16:02.036755 , -0.580810546875 , -0.489990234375 , 0.712646484375 , 55.7772893773 , 17.8427350427 , -52.6285714286 , -5.28717041016 , 3.76892089844 , -1.86157226562 
2018/05/08 00:16:02.328985 , -0.580810546875 , -0.489990234375 , 0.712646484375 , 55.7772893773 , 17.8427350427 , -52.6285714286 , -5.28717041016 , 3.76892089844 , -1.86157226562 
2018/05/08 00:16:02.621578 , -0.580810546875 , -0.489990234375 , 0.712646484375 , 55.7772893773 , 17.8427350427 , -52.6285714286 , -5.28717041016 , 3.76892089844 , -1.86157226562 
2018/05/08 00:16:02.913817 , -0.545654296875 , -0.468017578125 , 0.717041015625 , 57.4266178266 , 19.1921855922 , -52.0288156288 , -5.20324707031 , 4.70733642578 , -0.999450683594 
2018/05/08 00:16:03.206965 , -0.545654296875 , -0.468017578125 , 0.717041015625 , 57.4266178266 , 19.1921855922 , -52.0288156288 , -5.20324707031 , 4.70733642578 , -0.999450683594 
2018/05/08 00:16:03.498451 , -0.545654296875 , -0.468017578125 , 0.717041015625 , 57.4266178266 , 19.1921855922 , -52.0288156288 , -5.20324707031 , 4.70733642578 , -0.999450683594 
2018/05/08 00:16:03.791107 , -0.545654296875 , -0.468017578125 , 0.717041015625 , 56.8268620269 , 18.2925518926 , -52.1787545788 , -3.92913818359 , 4.59289550781 , -1.16729736328 
2018/05/08 00:16:04.083939 , -0.586669921875 , -0.45751953125 , 0.729248046875 , 56.8268620269 , 18.2925518926 , -52.1787545788 , -3.92913818359 , 4.59289550781 , -1.16729736328 
2018/05/08 00:16:04.376646 , -0.586669921875 , -0.45751953125 , 0.729248046875 , 56.8268620269 , 18.2925518926 , -52.1787545788 , -3.92913818359 , 4.59289550781 , -1.16729736328 
2018/05/08 00:16:04.668942 , -0.586669921875 , -0.45751953125 , 0.729248046875 , 56.8268620269 , 18.2925518926 , -52.1787545788 , -3.92913818359 , 4.59289550781 , -1.16729736328 
2018/05/08 00:16:04.961389 , -0.505615234375 , -0.4443359375 , 0.69677734375 , 55.6273504274 , 17.6927960928 , -51.7289377289 , -6.13403320312 , 4.98199462891 , -0.640869140625 
2018/05/08 00:16:05.253960 , -0.505615234375 , -0.4443359375 , 0.69677734375 , 55.6273504274 , 17.6927960928 , -51.7289377289 , -6.13403320312 , 4.98199462891 , -0.640869140625 
2018/05/08 00:16:05.546507 , -0.505615234375 , -0.4443359375 , 0.69677734375 , 55.6273504274 , 17.6927960928 , -51.7289377289 , -6.13403320312 , 4.98199462891 , -0.640869140625 
2018/05/08 00:16:05.838945 , -0.505615234375 , -0.4443359375 , 0.69677734375 , 56.377045177 , 17.3929181929 , -52.7785103785 , -4.60052490234 , 5.75256347656 , 0.579833984375 
2018/05/08 00:16:06.131124 , -0.5849609375 , -0.414306640625 , 0.68896484375 , 56.377045177 , 17.3929181929 , -52.7785103785 , -4.60052490234 , 5.75256347656 , 0.579833984375 
2018/05/08 00:16:06.423865 , -0.5849609375 , -0.414306640625 , 0.68896484375 , 56.377045177 , 17.3929181929 , -52.7785103785 , -4.60052490234 , 5.75256347656 , 0.579833984375 
2018/05/08 00:16:06.716492 , -0.5849609375 , -0.414306640625 , 0.68896484375 , 56.377045177 , 17.3929181929 , -52.7785103785 , -4.24194335938 , 4.2724609375 , 0.236511230469 
2018/05/08 00:16:07.008895 , -0.5048828125 , -0.440673828125 , 0.676025390625 , 57.2766788767 , 17.5428571429 , -52.1787545788 , -4.24194335938 , 4.2724609375 , 0.236511230469 
2018/05/08 00:16:07.301356 , -0.5048828125 , -0.440673828125 , 0.676025390625 , 57.2766788767 , 17.5428571429 , -52.1787545788 , -4.24194335938 , 4.2724609375 , 0.236511230469 
2018/05/08 00:16:07.594422 , -0.5048828125 , -0.440673828125 , 0.676025390625 , 57.2766788767 , 17.5428571429 , -52.1787545788 , -4.24194335938 , 4.2724609375 , 0.236511230469 
2018/05/08 00:16:07.886632 , -0.52001953125 , -0.449462890625 , 0.72314453125 , 56.2271062271 , 17.242979243 , -52.9284493284 , -5.47027587891 , 4.00543212891 , 0.312805175781 
2018/05/08 00:16:08.178801 , -0.52001953125 , -0.449462890625 , 0.72314453125 , 56.2271062271 , 17.242979243 , -52.9284493284 , -5.47027587891 , 4.00543212891 , 0.312805175781 
2018/05/08 00:16:08.471328 , -0.52001953125 , -0.449462890625 , 0.72314453125 , 56.2271062271 , 17.242979243 , -52.9284493284 , -5.47027587891 , 4.00543212891 , 0.312805175781 
2018/05/08 00:16:08.763525 , -0.52001953125 , -0.449462890625 , 0.72314453125 , 56.2271062271 , 17.242979243 , -52.9284493284 , -5.24139404297 , 5.126953125 , 0.0457763671875 
2018/05/08 00:16:09.056416 , -0.5185546875 , -0.471923828125 , 0.70166015625 , 55.7772893773 , 18.5924297924 , -52.9284493284 , -5.24139404297 , 5.126953125 , 0.0457763671875 
2018/05/08 00:16:09.348621 , -0.5185546875 , -0.471923828125 , 0.70166015625 , 55.7772893773 , 18.5924297924 , -52.9284493284 , -5.24139404297 , 5.126953125 , 0.0457763671875 
2018/05/08 00:16:09.641268 , -0.5185546875 , -0.471923828125 , 0.70166015625 , 55.7772893773 , 18.5924297924 , -52.9284493284 , -5.24139404297 , 5.126953125 , 0.0457763671875 
2018/05/08 00:16:09.933539 , -0.53125 , -0.462158203125 , 0.6884765625 , 54.7277167277 , 18.5924297924 , -52.9284493284 , -5.18035888672 , 5.72967529297 , 0.816345214844 
2018/05/08 00:16:10.226011 , -0.53125 , -0.462158203125 , 0.6884765625 , 54.7277167277 , 18.5924297924 , -52.9284493284 , -5.18035888672 , 5.72967529297 , 0.816345214844 
2018/05/08 00:16:10.518357 , -0.53125 , -0.462158203125 , 0.6884765625 , 54.7277167277 , 18.5924297924 , -52.9284493284 , -5.18035888672 , 5.72967529297 , 0.816345214844 
2018/05/08 00:16:10.811154 , -0.53125 , -0.462158203125 , 0.6884765625 , 57.5765567766 , 19.3421245421 , -51.8788766789 , -6.98089599609 , 4.59289550781 , -0.129699707031 
2018/05/08 00:16:11.103691 , -0.58349609375 , -0.431396484375 , 0.680419921875 , 57.5765567766 , 19.3421245421 , -51.8788766789 , -6.98089599609 , 4.59289550781 , -0.129699707031 
2018/05/08 00:16:11.396153 , -0.58349609375 , -0.431396484375 , 0.680419921875 , 57.5765567766 , 19.3421245421 , -51.8788766789 , -6.98089599609 , 4.59289550781 , -0.129699707031 
2018/05/08 00:16:11.688758 , -0.58349609375 , -0.431396484375 , 0.680419921875 , 57.5765567766 , 19.3421245421 , -51.8788766789 , -5.11932373047 , 6.27136230469 , -0.274658203125 
2018/05/08 00:16:11.980843 , -0.640869140625 , -0.473388671875 , 0.69677734375 , 54.7277167277 , 16.4932844933 , -50.8293040293 , -5.11932373047 , 6.27136230469 , -0.274658203125 
2018/05/08 00:16:12.273626 , -0.640869140625 , -0.473388671875 , 0.69677734375 , 54.7277167277 , 16.4932844933 , -50.8293040293 , -5.11932373047 , 6.27136230469 , -0.274658203125 
2018/05/08 00:16:12.566225 , -0.640869140625 , -0.473388671875 , 0.69677734375 , 54.7277167277 , 16.4932844933 , -50.8293040293 , -5.11932373047 , 6.27136230469 , -0.274658203125 
2018/05/08 00:16:12.858601 , -0.640869140625 , -0.473388671875 , 0.69677734375 , 54.7277167277 , 16.4932844933 , -50.8293040293 , -4.638671875 , 3.82232666016 , -0.381469726562 
2018/05/08 00:16:13.151094 , -0.583984375 , -0.452880859375 , 0.709716796875 , 54.7277167277 , 16.4932844933 , -50.8293040293 , -4.638671875 , 3.82232666016 , -0.381469726562 
2018/05/08 00:16:13.443522 , -0.583984375 , -0.452880859375 , 0.709716796875 , 54.7277167277 , 16.4932844933 , -50.8293040293 , -4.638671875 , 3.82232666016 , -0.381469726562 
2018/05/08 00:16:13.736197 , -0.583984375 , -0.452880859375 , 0.709716796875 , 54.7277167277 , 16.4932844933 , -50.8293040293 , -5.18035888672 , 4.54711914062 , -0.396728515625 
2018/05/08 00:16:14.077450 , -0.53076171875 , -0.42919921875 , 0.66943359375 , 55.6273504274 , 15.8935286935 , -51.7289377289 , -5.18035888672 , 4.54711914062 , -0.396728515625 
2018/05/08 00:16:14.369734 , -0.53076171875 , -0.42919921875 , 0.66943359375 , 55.6273504274 , 15.8935286935 , -51.7289377289 , -5.18035888672 , 4.54711914062 , -0.396728515625 
2018/05/08 00:16:14.662155 , -0.53076171875 , -0.42919921875 , 0.66943359375 , 55.6273504274 , 15.8935286935 , -51.7289377289 , -5.18035888672 , 4.54711914062 , -0.396728515625 
2018/05/08 00:16:14.954736 , -0.5439453125 , -0.466064453125 , 0.711181640625 , 58.3262515263 , 19.3421245421 , -53.5282051282 , -4.60052490234 , 5.53894042969 , 0.350952148438 
2018/05/08 00:16:15.246962 , -0.5439453125 , -0.466064453125 , 0.711181640625 , 58.3262515263 , 19.3421245421 , -53.5282051282 , -4.60052490234 , 5.53894042969 , 0.350952148438 
2018/05/08 00:16:15.539685 , -0.5439453125 , -0.466064453125 , 0.711181640625 , 58.3262515263 , 19.3421245421 , -53.5282051282 , -4.60052490234 , 5.53894042969 , 0.350952148438 
2018/05/08 00:16:15.832065 , -0.5439453125 , -0.466064453125 , 0.711181640625 , 56.6769230769 , 17.3929181929 , -51.4290598291 , -3.84521484375 , 3.99780273438 , -0.6103515625 
2018/05/08 00:16:16.124713 , -0.538818359375 , -0.4462890625 , 0.679443359375 , 56.6769230769 , 17.3929181929 , -51.4290598291 , -3.84521484375 , 3.99780273438 , -0.6103515625 
2018/05/08 00:16:16.417235 , -0.538818359375 , -0.4462890625 , 0.679443359375 , 56.6769230769 , 17.3929181929 , -51.4290598291 , -3.84521484375 , 3.99780273438 , -0.6103515625 
2018/05/08 00:16:16.716302 , -0.538818359375 , -0.4462890625 , 0.679443359375 , 56.6769230769 , 17.3929181929 , -51.4290598291 , -4.17327880859 , 4.06646728516 , 0.358581542969 
2018/05/08 00:16:17.001983 , -0.565673828125 , -0.450439453125 , 0.68701171875 , 57.2766788767 , 18.2925518926 , -54.2778998779 , -4.17327880859 , 4.06646728516 , 0.358581542969 
2018/05/08 00:16:17.294300 , -0.565673828125 , -0.450439453125 , 0.68701171875 , 57.2766788767 , 18.2925518926 , -54.2778998779 , -4.17327880859 , 4.06646728516 , 0.358581542969 
2018/05/08 00:16:17.586717 , -0.565673828125 , -0.450439453125 , 0.68701171875 , 57.2766788767 , 18.2925518926 , -54.2778998779 , -4.17327880859 , 4.06646728516 , 0.358581542969 
2018/05/08 00:16:17.879382 , -0.51904296875 , -0.458251953125 , 0.7099609375 , 55.9272283272 , 18.1426129426 , -53.8280830281 , -6.62231445312 , 5.44738769531 , -0.6103515625 
2018/05/08 00:16:18.172038 , -0.51904296875 , -0.458251953125 , 0.7099609375 , 55.9272283272 , 18.1426129426 , -53.8280830281 , -6.62231445312 , 5.44738769531 , -0.6103515625 
2018/05/08 00:16:18.464520 , -0.51904296875 , -0.458251953125 , 0.7099609375 , 55.9272283272 , 18.1426129426 , -53.8280830281 , -6.62231445312 , 5.44738769531 , -0.6103515625 
2018/05/08 00:16:18.757314 , -0.51904296875 , -0.458251953125 , 0.7099609375 , 55.9272283272 , 18.1426129426 , -53.8280830281 , -2.90679931641 , 5.10406494141 , -2.06756591797 
2018/05/08 00:16:19.049535 , -0.564697265625 , -0.4794921875 , 0.711181640625 , 55.9272283272 , 18.1426129426 , -53.8280830281 , -2.90679931641 , 5.10406494141 , -2.06756591797 
2018/05/08 00:16:19.341962 , -0.564697265625 , -0.4794921875 , 0.711181640625 , 55.9272283272 , 18.1426129426 , -53.8280830281 , -2.90679931641 , 5.10406494141 , -2.06756591797 
2018/05/08 00:16:19.634432 , -0.564697265625 , -0.4794921875 , 0.711181640625 , 55.9272283272 , 18.1426129426 , -53.8280830281 , -2.90679931641 , 5.10406494141 , -2.06756591797 
2018/05/08 00:16:19.926981 , -0.55615234375 , -0.465576171875 , 0.71630859375 , 55.4774114774 , 19.3421245421 , -54.2778998779 , -5.02777099609 , 6.60705566406 , -2.08282470703 
2018/05/08 00:16:20.219435 , -0.55615234375 , -0.465576171875 , 0.71630859375 , 55.4774114774 , 19.3421245421 , -54.2778998779 , -5.02777099609 , 6.60705566406 , -2.08282470703 
2018/05/08 00:16:20.511859 , -0.55615234375 , -0.465576171875 , 0.71630859375 , 55.4774114774 , 19.3421245421 , -54.2778998779 , -5.02777099609 , 6.60705566406 , -2.08282470703 
2018/05/08 00:16:20.804529 , -0.55615234375 , -0.465576171875 , 0.71630859375 , 56.377045177 , 18.4424908425 , -53.3782661783 , -3.46374511719 , 5.60760498047 , 0.30517578125 
2018/05/08 00:16:21.096858 , -0.547119140625 , -0.470458984375 , 0.732421875 , 56.377045177 , 18.4424908425 , -53.3782661783 , -3.46374511719 , 5.60760498047 , 0.30517578125 
2018/05/08 00:16:21.389429 , -0.547119140625 , -0.470458984375 , 0.732421875 , 56.377045177 , 18.4424908425 , -53.3782661783 , -3.46374511719 , 5.60760498047 , 0.30517578125 
2018/05/08 00:16:21.681873 , -0.547119140625 , -0.470458984375 , 0.732421875 , 56.377045177 , 18.4424908425 , -53.3782661783 , -4.63104248047 , 3.99780273438 , 1.69372558594 
2018/05/08 00:16:21.974427 , -0.552001953125 , -0.447265625 , 0.68701171875 , 56.8268620269 , 17.5428571429 , -51.8788766789 , -4.63104248047 , 3.99780273438 , 1.69372558594 
2018/05/08 00:16:22.267166 , -0.552001953125 , -0.447265625 , 0.68701171875 , 56.8268620269 , 17.5428571429 , -51.8788766789 , -4.63104248047 , 3.99780273438 , 1.69372558594 
2018/05/08 00:16:22.559428 , -0.552001953125 , -0.447265625 , 0.68701171875 , 56.8268620269 , 17.5428571429 , -51.8788766789 , -4.63104248047 , 3.99780273438 , 1.69372558594 
2018/05/08 00:16:22.851903 , -0.552001953125 , -0.447265625 , 0.68701171875 , 56.9768009768 , 17.3929181929 , -53.3782661783 , -5.27954101562 , 5.28717041016 , -1.708984375 
2018/05/08 00:16:23.144393 , -0.55419921875 , -0.475341796875 , 0.742919921875 , 56.9768009768 , 17.3929181929 , -53.3782661783 , -5.27954101562 , 5.28717041016 , -1.708984375 
2018/05/08 00:16:23.446248 , -0.55419921875 , -0.475341796875 , 0.742919921875 , 56.9768009768 , 17.3929181929 , -53.3782661783 , -5.27954101562 , 5.28717041016 , -1.708984375 
2018/05/08 00:16:23.728831 , -0.55419921875 , -0.475341796875 , 0.742919921875 , 56.9768009768 , 17.3929181929 , -53.3782661783 , -4.54711914062 , 6.91986083984 , -1.0986328125 
2018/05/08 00:16:24.021466 , -0.58837890625 , -0.43896484375 , 0.690185546875 , 54.7277167277 , 16.7931623932 , -53.2283272283 , -4.54711914062 , 6.91986083984 , -1.0986328125 
2018/05/08 00:16:24.313728 , -0.58837890625 , -0.43896484375 , 0.690185546875 , 54.7277167277 , 16.7931623932 , -53.2283272283 , -4.54711914062 , 6.91986083984 , -1.0986328125 
2018/05/08 00:16:24.606890 , -0.58837890625 , -0.43896484375 , 0.690185546875 , 54.7277167277 , 16.7931623932 , -53.2283272283 , -4.54711914062 , 6.91986083984 , -1.0986328125 
2018/05/08 00:16:24.899313 , -0.5595703125 , -0.443359375 , 0.69873046875 , 56.377045177 , 18.1426129426 , -50.9792429792 , -4.32586669922 , 4.2724609375 , -1.35040283203 
2018/05/08 00:16:25.191727 , -0.5595703125 , -0.443359375 , 0.69873046875 , 56.377045177 , 18.1426129426 , -50.9792429792 , -4.32586669922 , 4.2724609375 , -1.35040283203 
2018/05/08 00:16:25.484383 , -0.5595703125 , -0.443359375 , 0.69873046875 , 56.377045177 , 18.1426129426 , -50.9792429792 , -4.32586669922 , 4.2724609375 , -1.35040283203 
2018/05/08 00:16:25.776762 , -0.5595703125 , -0.443359375 , 0.69873046875 , 56.377045177 , 18.1426129426 , -50.9792429792 , -4.89044189453 , 4.08935546875 , 0.267028808594 
2018/05/08 00:16:26.118003 , -0.568603515625 , -0.514404296875 , 0.69189453125 , 56.526984127 , 16.7931623932 , -53.5282051282 , -4.89044189453 , 4.08935546875 , 0.267028808594 
2018/05/08 00:16:26.410363 , -0.568603515625 , -0.514404296875 , 0.69189453125 , 56.526984127 , 16.7931623932 , -53.5282051282 , -4.89044189453 , 4.08935546875 , 0.267028808594 
2018/05/08 00:16:26.702914 , -0.568603515625 , -0.514404296875 , 0.69189453125 , 56.526984127 , 16.7931623932 , -53.5282051282 , -4.20379638672 , 4.86755371094 , -0.648498535156 
2018/05/08 00:16:26.995203 , -0.551025390625 , -0.4296875 , 0.680419921875 , 56.8268620269 , 16.7931623932 , -53.2283272283 , -4.20379638672 , 4.86755371094 , -0.648498535156 
2018/05/08 00:16:27.287860 , -0.551025390625 , -0.4296875 , 0.680419921875 , 56.8268620269 , 16.7931623932 , -53.2283272283 , -4.20379638672 , 4.86755371094 , -0.648498535156 
2018/05/08 00:16:27.580009 , -0.551025390625 , -0.4296875 , 0.680419921875 , 56.8268620269 , 16.7931623932 , -53.2283272283 , -4.20379638672 , 4.86755371094 , -0.648498535156 
2018/05/08 00:16:27.872855 , -0.551025390625 , -0.4296875 , 0.680419921875 , 55.9272283272 , 17.6927960928 , -52.0288156288 , -5.43212890625 , 4.66918945312 , 0.54931640625 
2018/05/08 00:16:28.165310 , -0.55810546875 , -0.426513671875 , 0.70166015625 , 55.9272283272 , 17.6927960928 , -52.0288156288 , -5.43212890625 , 4.66918945312 , 0.54931640625 
2018/05/08 00:16:28.457840 , -0.55810546875 , -0.426513671875 , 0.70166015625 , 55.9272283272 , 17.6927960928 , -52.0288156288 , -5.43212890625 , 4.66918945312 , 0.54931640625 
2018/05/08 00:16:28.750291 , -0.55810546875 , -0.426513671875 , 0.70166015625 , 55.9272283272 , 17.6927960928 , -52.0288156288 , -1.87683105469 , 3.28826904297 , 0.602722167969 
2018/05/08 00:16:29.042817 , -0.5166015625 , -0.465576171875 , 0.604248046875 , 55.9272283272 , 17.6927960928 , -52.7785103785 , -1.87683105469 , 3.28826904297 , 0.602722167969 
2018/05/08 00:16:29.383963 , -0.5166015625 , -0.465576171875 , 0.604248046875 , 55.9272283272 , 17.6927960928 , -52.7785103785 , -1.87683105469 , 3.28826904297 , 0.602722167969 
2018/05/08 00:16:29.676591 , -0.5166015625 , -0.465576171875 , 0.604248046875 , 55.9272283272 , 17.6927960928 , -52.7785103785 , -1.87683105469 , 3.28826904297 , 0.602722167969 
2018/05/08 00:16:29.969826 , -0.565673828125 , -0.485595703125 , 0.700927734375 , 56.526984127 , 17.8427350427 , -52.1787545788 , -4.85229492188 , 5.24139404297 , -0.79345703125 
2018/05/08 00:16:30.261327 , -0.565673828125 , -0.485595703125 , 0.700927734375 , 56.526984127 , 17.8427350427 , -52.1787545788 , -4.85229492188 , 5.24139404297 , -0.79345703125 
2018/05/08 00:16:30.553568 , -0.565673828125 , -0.485595703125 , 0.700927734375 , 56.526984127 , 17.8427350427 , -52.1787545788 , -4.85229492188 , 5.24139404297 , -0.79345703125 
2018/05/08 00:16:30.845936 , -0.565673828125 , -0.485595703125 , 0.700927734375 , 56.8268620269 , 18.5924297924 , -52.1787545788 , -4.81414794922 , 4.87518310547 , -1.22833251953 
2018/05/08 00:16:31.138830 , -0.544189453125 , -0.426513671875 , 0.700439453125 , 56.8268620269 , 18.5924297924 , -52.1787545788 , -4.81414794922 , 4.87518310547 , -1.22833251953 
2018/05/08 00:16:31.431244 , -0.544189453125 , -0.426513671875 , 0.700439453125 , 56.8268620269 , 18.5924297924 , -52.1787545788 , -4.81414794922 , 4.87518310547 , -1.22833251953 
2018/05/08 00:16:31.723799 , -0.544189453125 , -0.426513671875 , 0.700439453125 , 56.8268620269 , 18.5924297924 , -52.1787545788 , -3.83758544922 , 6.17218017578 , -0.465393066406 
2018/05/08 00:16:32.016529 , -0.562255859375 , -0.449462890625 , 0.66015625 , 56.377045177 , 18.1426129426 , -52.3286935287 , -3.83758544922 , 6.17218017578 , -0.465393066406 
2018/05/08 00:16:32.308755 , -0.562255859375 , -0.449462890625 , 0.66015625 , 56.377045177 , 18.1426129426 , -52.3286935287 , -3.83758544922 , 6.17218017578 , -0.465393066406 
2018/05/08 00:16:32.601300 , -0.562255859375 , -0.449462890625 , 0.66015625 , 56.377045177 , 18.1426129426 , -52.3286935287 , -3.83758544922 , 6.17218017578 , -0.465393066406 
2018/05/08 00:16:32.893675 , -0.564697265625 , -0.45166015625 , 0.651123046875 , 54.8776556777 , 18.4424908425 , -52.3286935287 , -4.74548339844 , 4.26483154297 , -2.28118896484 
2018/05/08 00:16:33.186527 , -0.564697265625 , -0.45166015625 , 0.651123046875 , 54.8776556777 , 18.4424908425 , -52.3286935287 , -4.74548339844 , 4.26483154297 , -2.28118896484 
2018/05/08 00:16:33.478503 , -0.564697265625 , -0.45166015625 , 0.651123046875 , 54.8776556777 , 18.4424908425 , -52.3286935287 , -4.74548339844 , 4.26483154297 , -2.28118896484 
2018/05/08 00:16:33.771211 , -0.564697265625 , -0.45166015625 , 0.651123046875 , 54.8776556777 , 18.4424908425 , -52.3286935287 , -4.50897216797 , 4.150390625 , -0.3662109375 
2018/05/08 00:16:34.063422 , -0.54931640625 , -0.461669921875 , 0.6630859375 , 56.9768009768 , 18.1426129426 , -52.3286935287 , -4.50897216797 , 4.150390625 , -0.3662109375 
2018/05/08 00:16:34.356398 , -0.54931640625 , -0.461669921875 , 0.6630859375 , 56.9768009768 , 18.1426129426 , -52.3286935287 , -4.50897216797 , 4.150390625 , -0.3662109375 
2018/05/08 00:16:34.648616 , -0.54931640625 , -0.461669921875 , 0.6630859375 , 56.9768009768 , 18.1426129426 , -52.3286935287 , -4.50897216797 , 4.150390625 , -0.3662109375 
2018/05/08 00:16:34.941173 , -0.51416015625 , -0.480712890625 , 0.73876953125 , 57.5765567766 , 17.8427350427 , -52.1787545788 , -3.99780273438 , 3.54766845703 , -1.00708007812 
2018/05/08 00:16:35.233615 , -0.51416015625 , -0.480712890625 , 0.73876953125 , 57.5765567766 , 17.8427350427 , -52.1787545788 , -3.99780273438 , 3.54766845703 , -1.00708007812 
2018/05/08 00:16:35.526190 , -0.51416015625 , -0.480712890625 , 0.73876953125 , 57.5765567766 , 17.8427350427 , -52.1787545788 , -3.99780273438 , 3.54766845703 , -1.00708007812 
2018/05/08 00:16:35.818604 , -0.51416015625 , -0.480712890625 , 0.73876953125 , 56.377045177 , 17.3929181929 , -52.3286935287 , -3.13568115234 , 3.44085693359 , 1.51062011719 
2018/05/08 00:16:36.110984 , -0.5341796875 , -0.45654296875 , 0.754638671875 , 56.377045177 , 17.3929181929 , -52.3286935287 , -3.13568115234 , 3.44085693359 , 1.51062011719 
2018/05/08 00:16:36.403521 , -0.5341796875 , -0.45654296875 , 0.754638671875 , 56.377045177 , 17.3929181929 , -52.3286935287 , -3.13568115234 , 3.44085693359 , 1.51062011719 
2018/05/08 00:16:36.695816 , -0.5341796875 , -0.45654296875 , 0.754638671875 , 56.377045177 , 17.3929181929 , -52.3286935287 , -3.23486328125 , 5.69915771484 , 0.205993652344 
2018/05/08 00:16:36.988486 , -0.53173828125 , -0.46923828125 , 0.680908203125 , 58.0263736264 , 17.3929181929 , -52.7785103785 , -3.23486328125 , 5.69915771484 , 0.205993652344 
2018/05/08 00:16:37.280702 , -0.53173828125 , -0.46923828125 , 0.680908203125 , 58.0263736264 , 17.3929181929 , -52.7785103785 , -3.23486328125 , 5.69915771484 , 0.205993652344 
2018/05/08 00:16:37.573105 , -0.53173828125 , -0.46923828125 , 0.680908203125 , 58.0263736264 , 17.3929181929 , -52.7785103785 , -3.23486328125 , 5.69915771484 , 0.205993652344 
2018/05/08 00:16:37.865760 , -0.53173828125 , -0.46923828125 , 0.680908203125 , 56.526984127 , 17.242979243 , -53.5282051282 , -4.04357910156 , 4.43267822266 , -0.00762939453125 
2018/05/08 00:16:38.158484 , -0.60498046875 , -0.498291015625 , 0.715087890625 , 56.526984127 , 17.242979243 , -53.5282051282 , -4.04357910156 , 4.43267822266 , -0.00762939453125 
2018/05/08 00:16:38.450987 , -0.60498046875 , -0.498291015625 , 0.715087890625 , 56.526984127 , 17.242979243 , -53.5282051282 , -4.04357910156 , 4.43267822266 , -0.00762939453125 
2018/05/08 00:16:38.743407 , -0.60498046875 , -0.498291015625 , 0.715087890625 , 56.526984127 , 17.242979243 , -53.5282051282 , -2.79235839844 , 4.47082519531 , 0.999450683594 
2018/05/08 00:16:39.036207 , -0.525634765625 , -0.45654296875 , 0.749755859375 , 56.377045177 , 18.7423687424 , -53.3782661783 , -2.79235839844 , 4.47082519531 , 0.999450683594 
2018/05/08 00:16:39.328237 , -0.525634765625 , -0.45654296875 , 0.749755859375 , 56.377045177 , 18.7423687424 , -53.3782661783 , -2.79235839844 , 4.47082519531 , 0.999450683594 
2018/05/08 00:16:39.620901 , -0.525634765625 , -0.45654296875 , 0.749755859375 , 56.377045177 , 18.7423687424 , -53.3782661783 , -2.79235839844 , 4.47082519531 , 0.999450683594 
2018/05/08 00:16:39.913175 , -0.51708984375 , -0.478271484375 , 0.724365234375 , 56.9768009768 , 18.4424908425 , -50.9792429792 , -3.56292724609 , 5.97381591797 , 0.503540039062 
2018/05/08 00:16:40.206185 , -0.51708984375 , -0.478271484375 , 0.724365234375 , 56.9768009768 , 18.4424908425 , -50.9792429792 , -3.56292724609 , 5.97381591797 , 0.503540039062 
2018/05/08 00:16:40.498370 , -0.51708984375 , -0.478271484375 , 0.724365234375 , 56.9768009768 , 18.4424908425 , -50.9792429792 , -3.56292724609 , 5.97381591797 , 0.503540039062 
2018/05/08 00:16:40.790907 , -0.51708984375 , -0.478271484375 , 0.724365234375 , 57.4266178266 , 18.4424908425 , -53.3782661783 , -3.79943847656 , 5.10406494141 , 0.228881835938 
2018/05/08 00:16:41.083334 , -0.53125 , -0.477783203125 , 0.729248046875 , 57.4266178266 , 18.4424908425 , -53.3782661783 , -3.79943847656 , 5.10406494141 , 0.228881835938 
2018/05/08 00:16:41.376119 , -0.53125 , -0.477783203125 , 0.729248046875 , 57.4266178266 , 18.4424908425 , -53.3782661783 , -3.79943847656 , 5.10406494141 , 0.228881835938 
2018/05/08 00:16:41.668307 , -0.53125 , -0.477783203125 , 0.729248046875 , 57.4266178266 , 18.4424908425 , -53.3782661783 , -3.79943847656 , 5.10406494141 , 0.228881835938 
2018/05/08 00:16:41.961574 , -0.547119140625 , -0.449951171875 , 0.69482421875 , 57.4266178266 , 17.3929181929 , -53.8280830281 , -5.02014160156 , 4.57763671875 , 1.06811523438 
2018/05/08 00:16:42.253265 , -0.547119140625 , -0.449951171875 , 0.69482421875 , 57.4266178266 , 17.3929181929 , -53.8280830281 , -5.02014160156 , 4.57763671875 , 1.06811523438 
2018/05/08 00:16:42.545428 , -0.547119140625 , -0.449951171875 , 0.69482421875 , 57.4266178266 , 17.3929181929 , -53.8280830281 , -5.02014160156 , 4.57763671875 , 1.06811523438 
2018/05/08 00:16:42.838186 , -0.547119140625 , -0.449951171875 , 0.69482421875 , 58.4761904762 , 17.6927960928 , -52.7785103785 , -3.23486328125 , 2.98309326172 , -0.244140625 
2018/05/08 00:16:43.130678 , -0.526123046875 , -0.4697265625 , 0.71923828125 , 58.4761904762 , 17.6927960928 , -52.7785103785 , -3.23486328125 , 2.98309326172 , -0.244140625 
2018/05/08 00:16:43.423243 , -0.526123046875 , -0.4697265625 , 0.71923828125 , 58.4761904762 , 17.6927960928 , -52.7785103785 , -3.23486328125 , 2.98309326172 , -0.244140625 
2018/05/08 00:16:43.716043 , -0.526123046875 , -0.4697265625 , 0.71923828125 , 58.4761904762 , 17.6927960928 , -52.7785103785 , -3.79180908203 , 4.44030761719 , -1.0986328125 
2018/05/08 00:16:44.007870 , -0.543212890625 , -0.452880859375 , 0.703369140625 , 57.5765567766 , 17.242979243 , -53.5282051282 , -3.79180908203 , 4.44030761719 , -1.0986328125 
2018/05/08 00:16:44.300284 , -0.543212890625 , -0.452880859375 , 0.703369140625 , 57.5765567766 , 17.242979243 , -53.5282051282 , -3.79180908203 , 4.44030761719 , -1.0986328125 
2018/05/08 00:16:44.592715 , -0.543212890625 , -0.452880859375 , 0.703369140625 , 57.5765567766 , 17.242979243 , -53.5282051282 , -3.79180908203 , 4.44030761719 , -1.0986328125 
2018/05/08 00:16:44.885856 , -0.560791015625 , -0.434814453125 , 0.73876953125 , 55.4774114774 , 18.5924297924 , -51.578998779 , -3.61633300781 , 3.60870361328 , 0.358581542969 
2018/05/08 00:16:45.177859 , -0.560791015625 , -0.434814453125 , 0.73876953125 , 55.4774114774 , 18.5924297924 , -51.578998779 , -3.61633300781 , 3.60870361328 , 0.358581542969 
2018/05/08 00:16:45.470568 , -0.560791015625 , -0.434814453125 , 0.73876953125 , 55.4774114774 , 18.5924297924 , -51.578998779 , -3.61633300781 , 3.60870361328 , 0.358581542969 
2018/05/08 00:16:45.762812 , -0.560791015625 , -0.434814453125 , 0.73876953125 , 55.4774114774 , 18.5924297924 , -51.578998779 , -4.24957275391 , 4.86755371094 , 0.0457763671875 
2018/05/08 00:16:46.104407 , -0.546142578125 , -0.44873046875 , 0.726318359375 , 56.526984127 , 16.7931623932 , -51.8788766789 , -4.24957275391 , 4.86755371094 , 0.0457763671875 
2018/05/08 00:16:46.396635 , -0.546142578125 , -0.44873046875 , 0.726318359375 , 56.526984127 , 16.7931623932 , -51.8788766789 , -4.24957275391 , 4.86755371094 , 0.0457763671875 
2018/05/08 00:16:46.689165 , -0.546142578125 , -0.44873046875 , 0.726318359375 , 56.526984127 , 16.7931623932 , -51.8788766789 , -3.70788574219 , 5.37872314453 , -2.44903564453 
2018/05/08 00:16:46.981557 , -0.5625 , -0.45458984375 , 0.728271484375 , 55.6273504274 , 17.6927960928 , -53.0783882784 , -3.70788574219 , 5.37872314453 , -2.44903564453 
2018/05/08 00:16:47.274148 , -0.5625 , -0.45458984375 , 0.728271484375 , 55.6273504274 , 17.6927960928 , -53.0783882784 , -3.70788574219 , 5.37872314453 , -2.44903564453 
2018/05/08 00:16:47.566676 , -0.5625 , -0.45458984375 , 0.728271484375 , 55.6273504274 , 17.6927960928 , -53.0783882784 , -3.70788574219 , 5.37872314453 , -2.44903564453 
2018/05/08 00:16:47.859047 , -0.5625 , -0.45458984375 , 0.728271484375 , 56.377045177 , 17.093040293 , -52.0288156288 , -5.02777099609 , 4.40216064453 , 1.46484375 
2018/05/08 00:16:48.151565 , -0.552490234375 , -0.482177734375 , 0.709228515625 , 56.377045177 , 17.093040293 , -52.0288156288 , -5.02777099609 , 4.40216064453 , 1.46484375 
2018/05/08 00:16:48.443866 , -0.552490234375 , -0.482177734375 , 0.709228515625 , 56.377045177 , 17.093040293 , -52.0288156288 , -5.02777099609 , 4.40216064453 , 1.46484375 
2018/05/08 00:16:48.736619 , -0.552490234375 , -0.482177734375 , 0.709228515625 , 56.377045177 , 17.093040293 , -52.0288156288 , -5.27954101562 , 3.80706787109 , -0.511169433594 
2018/05/08 00:16:49.028803 , -0.53955078125 , -0.453369140625 , 0.744384765625 , 55.6273504274 , 17.3929181929 , -52.3286935287 , -5.27954101562 , 3.80706787109 , -0.511169433594 
2018/05/08 00:16:49.321511 , -0.53955078125 , -0.453369140625 , 0.744384765625 , 55.6273504274 , 17.3929181929 , -52.3286935287 , -5.27954101562 , 3.80706787109 , -0.511169433594 
2018/05/08 00:16:49.614018 , -0.53955078125 , -0.453369140625 , 0.744384765625 , 55.6273504274 , 17.3929181929 , -52.3286935287 , -5.27954101562 , 3.80706787109 , -0.511169433594 
2018/05/08 00:16:49.906679 , -0.552978515625 , -0.474365234375 , 0.692138671875 , 56.526984127 , 17.242979243 , -52.1787545788 , -3.89099121094 , 4.85992431641 , -1.77764892578 
2018/05/08 00:16:50.198911 , -0.552978515625 , -0.474365234375 , 0.692138671875 , 56.526984127 , 17.242979243 , -52.1787545788 , -3.89099121094 , 4.85992431641 , -1.77764892578 
2018/05/08 00:16:50.491404 , -0.552978515625 , -0.474365234375 , 0.692138671875 , 56.526984127 , 17.242979243 , -52.1787545788 , -3.89099121094 , 4.85992431641 , -1.77764892578 
2018/05/08 00:16:50.783946 , -0.552978515625 , -0.474365234375 , 0.692138671875 , 56.2271062271 , 16.4932844933 , -53.978021978 , -3.61633300781 , 5.45501708984 , -0.602722167969 
2018/05/08 00:16:51.076110 , -0.51708984375 , -0.4267578125 , 0.66162109375 , 56.2271062271 , 16.4932844933 , -53.978021978 , -3.61633300781 , 5.45501708984 , -0.602722167969 
2018/05/08 00:16:51.368540 , -0.51708984375 , -0.4267578125 , 0.66162109375 , 56.2271062271 , 16.4932844933 , -53.978021978 , -3.61633300781 , 5.45501708984 , -0.602722167969 
2018/05/08 00:16:51.661048 , -0.51708984375 , -0.4267578125 , 0.66162109375 , 56.2271062271 , 16.4932844933 , -53.978021978 , -3.61633300781 , 5.45501708984 , -0.602722167969 
2018/05/08 00:16:51.953835 , -0.58154296875 , -0.430419921875 , 0.697998046875 , 56.2271062271 , 17.242979243 , -52.1787545788 , -2.61688232422 , 2.66265869141 , -1.61743164062 
2018/05/08 00:16:52.246315 , -0.58154296875 , -0.430419921875 , 0.697998046875 , 56.2271062271 , 17.242979243 , -52.1787545788 , -2.61688232422 , 2.66265869141 , -1.61743164062 
2018/05/08 00:16:52.538820 , -0.58154296875 , -0.430419921875 , 0.697998046875 , 56.2271062271 , 17.242979243 , -52.1787545788 , -2.61688232422 , 2.66265869141 , -1.61743164062 
2018/05/08 00:16:52.831264 , -0.58154296875 , -0.430419921875 , 0.697998046875 , 57.7264957265 , 16.6432234432 , -53.8280830281 , -4.68444824219 , 5.45501708984 , 0.587463378906 
2018/05/08 00:16:53.123754 , -0.53076171875 , -0.42431640625 , 0.711181640625 , 57.7264957265 , 16.6432234432 , -53.8280830281 , -4.68444824219 , 5.45501708984 , 0.587463378906 
2018/05/08 00:16:53.416346 , -0.53076171875 , -0.42431640625 , 0.711181640625 , 57.7264957265 , 16.6432234432 , -53.8280830281 , -4.68444824219 , 5.45501708984 , 0.587463378906 
2018/05/08 00:16:53.708641 , -0.53076171875 , -0.42431640625 , 0.711181640625 , 57.7264957265 , 16.6432234432 , -53.8280830281 , -3.27301025391 , 4.72259521484 , -0.526428222656 
2018/05/08 00:16:54.001205 , -0.580810546875 , -0.45166015625 , 0.672607421875 , 57.7264957265 , 17.6927960928 , -52.0288156288 , -3.27301025391 , 4.72259521484 , -0.526428222656 
2018/05/08 00:16:54.293516 , -0.580810546875 , -0.45166015625 , 0.672607421875 , 57.7264957265 , 17.6927960928 , -52.0288156288 , -3.27301025391 , 4.72259521484 , -0.526428222656 
2018/05/08 00:16:54.586312 , -0.580810546875 , -0.45166015625 , 0.672607421875 , 57.7264957265 , 17.6927960928 , -52.0288156288 , -3.27301025391 , 4.72259521484 , -0.526428222656 
2018/05/08 00:16:54.878420 , -0.539794921875 , -0.424072265625 , 0.7001953125 , 55.9272283272 , 18.1426129426 , -52.7785103785 , -3.47900390625 , 4.5166015625 , -0.0991821289062 
2018/05/08 00:16:55.171173 , -0.539794921875 , -0.424072265625 , 0.7001953125 , 55.9272283272 , 18.1426129426 , -52.7785103785 , -3.47900390625 , 4.5166015625 , -0.0991821289062 
2018/05/08 00:16:55.463926 , -0.539794921875 , -0.424072265625 , 0.7001953125 , 55.9272283272 , 18.1426129426 , -52.7785103785 , -3.47900390625 , 4.5166015625 , -0.0991821289062 
2018/05/08 00:16:55.756315 , -0.539794921875 , -0.424072265625 , 0.7001953125 , 55.9272283272 , 18.1426129426 , -52.7785103785 , -2.48718261719 , 5.84411621094 , -0.679016113281 
2018/05/08 00:16:56.048651 , -0.574462890625 , -0.4560546875 , 0.7060546875 , 55.9272283272 , 18.1426129426 , -52.7785103785 , -2.48718261719 , 5.84411621094 , -0.679016113281 
2018/05/08 00:16:56.341066 , -0.574462890625 , -0.4560546875 , 0.7060546875 , 55.9272283272 , 18.1426129426 , -52.7785103785 , -2.48718261719 , 5.84411621094 , -0.679016113281 
2018/05/08 00:16:56.633602 , -0.574462890625 , -0.4560546875 , 0.7060546875 , 55.9272283272 , 18.1426129426 , -52.7785103785 , -2.48718261719 , 5.84411621094 , -0.679016113281 
2018/05/08 00:16:56.926073 , -0.542724609375 , -0.434326171875 , 0.715087890625 , 55.9272283272 , 16.3433455433 , -50.9792429792 , -4.36401367188 , 4.74548339844 , 2.16674804688 
2018/05/08 00:16:57.218539 , -0.542724609375 , -0.434326171875 , 0.715087890625 , 55.9272283272 , 16.3433455433 , -50.9792429792 , -4.36401367188 , 4.74548339844 , 2.16674804688 
2018/05/08 00:16:57.510846 , -0.542724609375 , -0.434326171875 , 0.715087890625 , 55.9272283272 , 16.3433455433 , -50.9792429792 , -4.36401367188 , 4.74548339844 , 2.16674804688 
2018/05/08 00:16:57.803187 , -0.542724609375 , -0.434326171875 , 0.715087890625 , 57.5765567766 , 19.3421245421 , -54.2778998779 , -2.81524658203 , 4.71496582031 , 0.42724609375 
2018/05/08 00:16:58.095554 , -0.51708984375 , -0.46142578125 , 0.7001953125 , 57.5765567766 , 19.3421245421 , -54.2778998779 , -2.81524658203 , 4.71496582031 , 0.42724609375 
2018/05/08 00:16:58.388463 , -0.51708984375 , -0.46142578125 , 0.7001953125 , 57.5765567766 , 19.3421245421 , -54.2778998779 , -2.81524658203 , 4.71496582031 , 0.42724609375 
2018/05/08 00:16:58.680930 , -0.51708984375 , -0.46142578125 , 0.7001953125 , 57.5765567766 , 19.3421245421 , -54.2778998779 , -3.68499755859 , 4.24194335938 , -1.38854980469 
2018/05/08 00:16:58.973455 , -0.566650390625 , -0.453125 , 0.711669921875 , 57.5765567766 , 17.242979243 , -52.1787545788 , -3.68499755859 , 4.24194335938 , -1.38854980469 
2018/05/08 00:16:59.266026 , -0.566650390625 , -0.453125 , 0.711669921875 , 57.5765567766 , 17.242979243 , -52.1787545788 , -3.68499755859 , 4.24194335938 , -1.38854980469 
2018/05/08 00:16:59.558359 , -0.566650390625 , -0.453125 , 0.711669921875 , 57.5765567766 , 17.242979243 , -52.1787545788 , -3.68499755859 , 4.24194335938 , -1.38854980469 
2018/05/08 00:16:59.850843 , -0.566650390625 , -0.453125 , 0.711669921875 , 57.5765567766 , 17.242979243 , -52.1787545788 , -4.55474853516 , 5.92803955078 , -1.89208984375 
2018/05/08 00:17:00.143205 , -0.57958984375 , -0.453125 , 0.7158203125 , 57.5765567766 , 17.242979243 , -52.1787545788 , -4.55474853516 , 5.92803955078 , -1.89208984375 
2018/05/08 00:17:00.435922 , -0.57958984375 , -0.453125 , 0.7158203125 , 57.5765567766 , 17.242979243 , -52.1787545788 , -4.55474853516 , 5.92803955078 , -1.89208984375 
2018/05/08 00:17:00.728062 , -0.57958984375 , -0.453125 , 0.7158203125 , 57.5765567766 , 17.242979243 , -52.1787545788 , -4.57000732422 , 5.34057617188 , -1.23596191406 
2018/05/08 00:17:01.020809 , -0.5322265625 , -0.4658203125 , 0.748779296875 , 57.5765567766 , 17.8427350427 , -52.9284493284 , -4.57000732422 , 5.34057617188 , -1.23596191406 
2018/05/08 00:17:01.313256 , -0.5322265625 , -0.4658203125 , 0.748779296875 , 57.5765567766 , 17.8427350427 , -52.9284493284 , -4.57000732422 , 5.34057617188 , -1.23596191406 
2018/05/08 00:17:01.605847 , -0.5322265625 , -0.4658203125 , 0.748779296875 , 57.5765567766 , 17.8427350427 , -52.9284493284 , -4.57000732422 , 5.34057617188 , -1.23596191406 
2018/05/08 00:17:01.898254 , -0.569580078125 , -0.462646484375 , 0.745849609375 , 57.5765567766 , 16.1934065934 , -52.9284493284 , -3.44848632812 , 4.79888916016 , 1.220703125 
2018/05/08 00:17:02.190425 , -0.569580078125 , -0.462646484375 , 0.745849609375 , 57.5765567766 , 16.1934065934 , -52.9284493284 , -3.44848632812 , 4.79888916016 , 1.220703125 
2018/05/08 00:17:02.482840 , -0.569580078125 , -0.462646484375 , 0.745849609375 , 57.5765567766 , 16.1934065934 , -52.9284493284 , -3.44848632812 , 4.79888916016 , 1.220703125 
2018/05/08 00:17:02.775690 , -0.569580078125 , -0.462646484375 , 0.745849609375 , 56.526984127 , 17.5428571429 , -52.6285714286 , -3.28063964844 , 3.79943847656 , -0.381469726562 
2018/05/08 00:17:03.068067 , -0.5908203125 , -0.44580078125 , 0.70703125 , 56.526984127 , 17.5428571429 , -52.6285714286 , -3.28063964844 , 3.79943847656 , -0.381469726562 
2018/05/08 00:17:03.360342 , -0.5908203125 , -0.44580078125 , 0.70703125 , 56.526984127 , 17.5428571429 , -52.6285714286 , -3.28063964844 , 3.79943847656 , -0.381469726562 
2018/05/08 00:17:03.653096 , -0.5908203125 , -0.44580078125 , 0.70703125 , 56.526984127 , 17.5428571429 , -52.6285714286 , -3.28063964844 , 3.79943847656 , -0.381469726562 
2018/05/08 00:17:03.945404 , -0.518310546875 , -0.3955078125 , 0.693603515625 , 55.9272283272 , 18.1426129426 , -53.3782661783 , -5.66101074219 , 4.67681884766 , 0.205993652344 
2018/05/08 00:17:04.246269 , -0.518310546875 , -0.3955078125 , 0.693603515625 , 55.9272283272 , 18.1426129426 , -53.3782661783 , -5.66101074219 , 4.67681884766 , 0.205993652344 
2018/05/08 00:17:04.530187 , -0.518310546875 , -0.3955078125 , 0.693603515625 , 55.9272283272 , 18.1426129426 , -53.3782661783 , -5.66101074219 , 4.67681884766 , 0.205993652344 
2018/05/08 00:17:04.822621 , -0.518310546875 , -0.3955078125 , 0.693603515625 , 56.526984127 , 18.5924297924 , -51.8788766789 , -4.73022460938 , 4.50134277344 , -0.984191894531 
2018/05/08 00:17:05.115266 , -0.560546875 , -0.4833984375 , 0.7197265625 , 56.526984127 , 18.5924297924 , -51.8788766789 , -4.73022460938 , 4.50134277344 , -0.984191894531 
2018/05/08 00:17:05.407914 , -0.560546875 , -0.4833984375 , 0.7197265625 , 56.526984127 , 18.5924297924 , -51.8788766789 , -4.73022460938 , 4.50134277344 , -0.984191894531 
2018/05/08 00:17:05.700403 , -0.560546875 , -0.4833984375 , 0.7197265625 , 56.526984127 , 18.5924297924 , -51.8788766789 , -4.37927246094 , 6.11114501953 , 0.129699707031 
