Connecting to 24:71:89:C1:0D:07
time ,acc-x,acc-y,acc-z ,mag-x,mag-y,mag-z ,gyr-x,gyr-y,gyr-z 
2018/05/14 21:07:09.287317 , 0.0 , 0.0 , 0.0 , 0.0 , 0.0 , 0.0 , 0.0 , 0.0 , 0.0 
2018/05/14 21:07:09.546547 , 0.0 , 0.0 , 0.0 , 0.0 , 0.0 , 0.0 , 0.0 , 0.0 , 0.0 
2018/05/14 21:07:09.839027 , 0.0 , 0.0 , 0.0 , 0.0 , 0.0 , 0.0 , 0.0 , 0.0 , 0.0 
2018/05/14 21:07:10.131509 , -0.0341796875 , 0.06884765625 , 1.02294921875 , 0.0 , 0.0 , 0.0 , -4.21142578125 , 6.07299804688 , -0.30517578125 
2018/05/14 21:07:10.424051 , -0.0341796875 , 0.06884765625 , 1.02294921875 , 0.0 , 0.0 , 0.0 , -4.21142578125 , 6.07299804688 , -0.30517578125 
2018/05/14 21:07:10.765308 , -0.0341796875 , 0.06884765625 , 1.02294921875 , 0.0 , 0.0 , 0.0 , -4.21142578125 , 6.07299804688 , -0.30517578125 
2018/05/14 21:07:11.057797 , -0.023193359375 , 0.05224609375 , 1.01782226562 , 0.0 , 0.0 , 0.0 , -4.83703613281 , 2.63977050781 , -0.938415527344 
2018/05/14 21:07:11.350332 , -0.023193359375 , 0.05224609375 , 1.01782226562 , 0.0 , 0.0 , 0.0 , -4.83703613281 , 2.63977050781 , -0.938415527344 
2018/05/14 21:07:11.642837 , -0.023193359375 , 0.05224609375 , 1.01782226562 , 0.0 , 0.0 , 0.0 , -4.83703613281 , 2.63977050781 , -0.938415527344 
2018/05/14 21:07:11.935318 , -0.023193359375 , 0.05224609375 , 1.01782226562 , 8.8463980464 , 13.4945054945 , -118.151892552 , -3.30352783203 , 4.00543212891 , -0.831604003906 
2018/05/14 21:07:12.227843 , 0.015869140625 , 0.02099609375 , 1.01000976562 , 8.8463980464 , 13.4945054945 , -118.151892552 , -3.30352783203 , 4.00543212891 , -0.831604003906 
2018/05/14 21:07:12.520378 , 0.015869140625 , 0.02099609375 , 1.01000976562 , 8.8463980464 , 13.4945054945 , -118.151892552 , -3.30352783203 , 4.00543212891 , -0.831604003906 
2018/05/14 21:07:12.812852 , 0.015869140625 , 0.02099609375 , 1.01000976562 , 8.8463980464 , 13.4945054945 , -118.151892552 , -3.30352783203 , 4.00543212891 , -0.831604003906 
2018/05/14 21:07:13.105347 , -0.027587890625 , 0.027099609375 , 1.0322265625 , 8.54652014652 , 12.7448107448 , -118.601709402 , -7.17163085938 , 5.39398193359 , -0.686645507812 
2018/05/14 21:07:13.397887 , -0.027587890625 , 0.027099609375 , 1.0322265625 , 8.54652014652 , 12.7448107448 , -118.601709402 , -7.17163085938 , 5.39398193359 , -0.686645507812 
2018/05/14 21:07:13.690445 , -0.027587890625 , 0.027099609375 , 1.0322265625 , 8.54652014652 , 12.7448107448 , -118.601709402 , -3.11279296875 , 3.84521484375 , -0.953674316406 
2018/05/14 21:07:14.129193 , -0.014404296875 , 0.073974609375 , 1.044921875 , 6.44737484737 , 12.1450549451 , -117.552136752 , -3.11279296875 , 3.84521484375 , -0.953674316406 
2018/05/14 21:07:14.421651 , -0.014404296875 , 0.073974609375 , 1.044921875 , 6.44737484737 , 12.1450549451 , -117.552136752 , -3.11279296875 , 3.84521484375 , -0.953674316406 
2018/05/14 21:07:14.811747 , -0.014404296875 , 0.073974609375 , 1.044921875 , 6.44737484737 , 12.1450549451 , -117.552136752 , -3.11279296875 , 3.84521484375 , -0.953674316406 
2018/05/14 21:07:15.104109 , 0.035888671875 , 0.04345703125 , 1.00854492188 , 7.79682539683 , 12.1450549451 , -117.552136752 , -6.69860839844 , 3.40270996094 , -1.29699707031 
2018/05/14 21:07:15.396628 , 0.035888671875 , 0.04345703125 , 1.00854492188 , 7.79682539683 , 12.1450549451 , -117.552136752 , -6.69860839844 , 3.40270996094 , -1.29699707031 
2018/05/14 21:07:15.689117 , 0.035888671875 , 0.04345703125 , 1.00854492188 , 7.79682539683 , 12.1450549451 , -117.552136752 , -6.69860839844 , 3.40270996094 , -1.29699707031 
2018/05/14 21:07:15.981622 , 0.035888671875 , 0.04345703125 , 1.00854492188 , 8.8463980464 , 11.3953601954 , -116.202686203 , -5.02014160156 , 4.25720214844 , 0.656127929688 
2018/05/14 21:07:16.274132 , 0.033935546875 , 0.046875 , 1.03955078125 , 8.8463980464 , 11.3953601954 , -116.202686203 , -5.02014160156 , 4.25720214844 , 0.656127929688 
2018/05/14 21:07:16.566630 , 0.033935546875 , 0.046875 , 1.03955078125 , 8.8463980464 , 11.3953601954 , -116.202686203 , -5.02014160156 , 4.25720214844 , 0.656127929688 
2018/05/14 21:07:16.859143 , 0.033935546875 , 0.046875 , 1.03955078125 , 8.8463980464 , 11.3953601954 , -116.202686203 , -0.06103515625 , 1.52587890625 , 2.47955322266 
2018/05/14 21:07:17.151615 , -0.008056640625 , -0.006103515625 , 1.03735351562 , 7.19706959707 , 12.4449328449 , -117.102319902 , -0.06103515625 , 1.52587890625 , 2.47955322266 
2018/05/14 21:07:17.444239 , -0.008056640625 , -0.006103515625 , 1.03735351562 , 7.19706959707 , 12.4449328449 , -117.102319902 , -0.06103515625 , 1.52587890625 , 2.47955322266 
2018/05/14 21:07:17.785384 , -0.008056640625 , -0.006103515625 , 1.03735351562 , 7.19706959707 , 12.4449328449 , -117.102319902 , -0.06103515625 , 1.52587890625 , 2.47955322266 
2018/05/14 21:07:18.078005 , -0.051513671875 , 0.055419921875 , 1.009765625 , 7.94676434676 , 11.8451770452 , -115.003174603 , -4.40979003906 , 3.39508056641 , 0.0381469726562 
2018/05/14 21:07:18.370451 , -0.051513671875 , 0.055419921875 , 1.009765625 , 7.94676434676 , 11.8451770452 , -115.003174603 , -4.40979003906 , 3.39508056641 , 0.0381469726562 
2018/05/14 21:07:18.662900 , -0.051513671875 , 0.055419921875 , 1.009765625 , 7.94676434676 , 11.8451770452 , -115.003174603 , -4.40979003906 , 3.39508056641 , 0.0381469726562 
2018/05/14 21:07:18.955389 , -0.051513671875 , 0.055419921875 , 1.009765625 , 8.39658119658 , 10.7956043956 , -116.652503053 , -5.7373046875 , 5.27954101562 , -2.54821777344 
2018/05/14 21:07:19.247611 , -0.008544921875 , 0.02978515625 , 1.00073242188 , 8.39658119658 , 10.7956043956 , -116.652503053 , -5.7373046875 , 5.27954101562 , -2.54821777344 
2018/05/14 21:07:19.589411 , -0.008544921875 , 0.02978515625 , 1.00073242188 , 8.39658119658 , 10.7956043956 , -116.652503053 , -5.7373046875 , 5.27954101562 , -2.54821777344 
2018/05/14 21:07:19.979227 , -0.008544921875 , 0.02978515625 , 1.00073242188 , 7.64688644689 , 13.3445665446 , -115.303052503 , -5.35583496094 , 6.43157958984 , -0.747680664062 
2018/05/14 21:07:20.271714 , 0.0009765625 , -0.024169921875 , 1.00219726562 , 7.64688644689 , 13.3445665446 , -115.303052503 , -5.35583496094 , 6.43157958984 , -0.747680664062 
2018/05/14 21:07:20.564220 , 0.0009765625 , -0.024169921875 , 1.00219726562 , 7.64688644689 , 13.3445665446 , -115.303052503 , -5.35583496094 , 6.43157958984 , -0.747680664062 
2018/05/14 21:07:20.856657 , 0.0009765625 , -0.024169921875 , 1.00219726562 , 7.64688644689 , 13.3445665446 , -115.303052503 , -1.24359130859 , 2.55584716797 , -2.09808349609 
2018/05/14 21:07:21.149163 , -0.03271484375 , 0.015869140625 , 1.044921875 , 7.64688644689 , 10.7956043956 , -116.352625153 , -1.24359130859 , 2.55584716797 , -2.09808349609 
2018/05/14 21:07:21.441637 , -0.03271484375 , 0.015869140625 , 1.044921875 , 7.64688644689 , 10.7956043956 , -116.352625153 , -1.24359130859 , 2.55584716797 , -2.09808349609 
2018/05/14 21:07:21.734151 , -0.03271484375 , 0.015869140625 , 1.044921875 , 7.64688644689 , 10.7956043956 , -116.352625153 , -1.24359130859 , 2.55584716797 , -2.09808349609 
2018/05/14 21:07:22.026665 , 0.012939453125 , 0.0029296875 , 0.98779296875 , 8.24664224664 , 11.0954822955 , -116.202686203 , -5.10406494141 , 5.85174560547 , 1.73950195312 
2018/05/14 21:07:22.319161 , 0.012939453125 , 0.0029296875 , 0.98779296875 , 8.24664224664 , 11.0954822955 , -116.202686203 , -5.10406494141 , 5.85174560547 , 1.73950195312 
2018/05/14 21:07:22.611783 , 0.012939453125 , 0.0029296875 , 0.98779296875 , 8.24664224664 , 11.0954822955 , -116.202686203 , -5.10406494141 , 5.85174560547 , 1.73950195312 
2018/05/14 21:07:22.904169 , 0.012939453125 , 0.0029296875 , 0.98779296875 , 8.24664224664 , 11.0954822955 , -116.202686203 , -2.87628173828 , 3.63159179688 , 0.42724609375 
2018/05/14 21:07:23.196685 , -0.013916015625 , -0.00732421875 , 1.01831054688 , 5.54774114774 , 12.5948717949 , -115.902808303 , -2.87628173828 , 3.63159179688 , 0.42724609375 
2018/05/14 21:07:23.537932 , -0.013916015625 , -0.00732421875 , 1.01831054688 , 5.54774114774 , 12.5948717949 , -115.902808303 , -2.87628173828 , 3.63159179688 , 0.42724609375 
2018/05/14 21:07:23.879220 , -0.013916015625 , -0.00732421875 , 1.01831054688 , 5.54774114774 , 12.5948717949 , -115.902808303 , -4.85229492188 , 6.56127929688 , -0.228881835938 
2018/05/14 21:07:24.171753 , -0.0703125 , -0.002685546875 , 1.01025390625 , 7.49694749695 , 11.6952380952 , -114.103540904 , -4.85229492188 , 6.56127929688 , -0.228881835938 
2018/05/14 21:07:24.464195 , -0.0703125 , -0.002685546875 , 1.01025390625 , 7.49694749695 , 11.6952380952 , -114.103540904 , -4.85229492188 , 6.56127929688 , -0.228881835938 
2018/05/14 21:07:24.756730 , -0.0703125 , -0.002685546875 , 1.01025390625 , 7.49694749695 , 11.6952380952 , -114.103540904 , -4.85229492188 , 6.56127929688 , -0.228881835938 
2018/05/14 21:07:25.049198 , -0.0078125 , 0.07177734375 , 1.025390625 , 7.64688644689 , 13.3445665446 , -113.953601954 , -5.40161132812 , 4.22668457031 , -1.01470947266 
2018/05/14 21:07:25.439335 , -0.0078125 , 0.07177734375 , 1.025390625 , 7.64688644689 , 13.3445665446 , -113.953601954 , -5.40161132812 , 4.22668457031 , -1.01470947266 
2018/05/14 21:07:25.780886 , -0.0078125 , 0.07177734375 , 1.025390625 , 7.64688644689 , 13.3445665446 , -113.953601954 , -5.40161132812 , 4.22668457031 , -1.01470947266 
2018/05/14 21:07:26.072999 , -0.03125 , 0.0537109375 , 1.01733398438 , 7.19706959707 , 11.0954822955 , -114.853235653 , -2.70843505859 , 2.20489501953 , -1.40380859375 
2018/05/14 21:07:26.365444 , -0.03125 , 0.0537109375 , 1.01733398438 , 7.19706959707 , 11.0954822955 , -114.853235653 , -2.70843505859 , 2.20489501953 , -1.40380859375 
2018/05/14 21:07:26.657942 , -0.03125 , 0.0537109375 , 1.01733398438 , 7.19706959707 , 11.0954822955 , -114.853235653 , -2.70843505859 , 2.20489501953 , -1.40380859375 
2018/05/14 21:07:26.999192 , -0.03125 , 0.0537109375 , 1.01733398438 , 7.49694749695 , 11.3953601954 , -115.153113553 , -3.64685058594 , 3.64685058594 , 0.633239746094 
2018/05/14 21:07:27.291687 , -0.0078125 , 0.02880859375 , 0.999755859375 , 7.49694749695 , 11.3953601954 , -115.153113553 , -3.64685058594 , 3.64685058594 , 0.633239746094 
2018/05/14 21:07:27.584172 , -0.0078125 , 0.02880859375 , 0.999755859375 , 7.49694749695 , 11.3953601954 , -115.153113553 , -3.64685058594 , 3.64685058594 , 0.633239746094 
2018/05/14 21:07:27.876747 , -0.0078125 , 0.02880859375 , 0.999755859375 , 7.49694749695 , 11.3953601954 , -115.153113553 , -4.68444824219 , 2.82287597656 , 0.686645507812 
2018/05/14 21:07:28.169215 , -0.008056640625 , 0.031494140625 , 1.0087890625 , 5.84761904762 , 12.5948717949 , -115.303052503 , -4.68444824219 , 2.82287597656 , 0.686645507812 
2018/05/14 21:07:28.461733 , -0.008056640625 , 0.031494140625 , 1.0087890625 , 5.84761904762 , 12.5948717949 , -115.303052503 , -4.68444824219 , 2.82287597656 , 0.686645507812 
2018/05/14 21:07:28.754215 , -0.008056640625 , 0.031494140625 , 1.0087890625 , 5.84761904762 , 12.5948717949 , -115.303052503 , -4.68444824219 , 2.82287597656 , 0.686645507812 
2018/05/14 21:07:29.095587 , 0.02587890625 , 0.05029296875 , 1.05053710938 , 6.44737484737 , 11.3953601954 , -115.153113553 , -6.04248046875 , 5.859375 , -1.27410888672 
2018/05/14 21:07:29.387732 , 0.02587890625 , 0.05029296875 , 1.05053710938 , 6.44737484737 , 11.3953601954 , -115.153113553 , -6.04248046875 , 5.859375 , -1.27410888672 
2018/05/14 21:07:29.680221 , 0.02587890625 , 0.05029296875 , 1.05053710938 , 6.44737484737 , 11.3953601954 , -115.153113553 , -6.04248046875 , 5.859375 , -1.27410888672 
2018/05/14 21:07:29.972724 , 0.02587890625 , 0.05029296875 , 1.05053710938 , 5.24786324786 , 10.7956043956 , -113.203907204 , -6.82067871094 , 8.59832763672 , 1.05285644531 
2018/05/14 21:07:30.265517 , 0.0009765625 , 0.0625 , 1.0712890625 , 5.24786324786 , 10.7956043956 , -113.203907204 , -6.82067871094 , 8.59832763672 , 1.05285644531 
2018/05/14 21:07:30.606763 , 0.0009765625 , 0.0625 , 1.0712890625 , 5.24786324786 , 10.7956043956 , -113.203907204 , -6.82067871094 , 8.59832763672 , 1.05285644531 
2018/05/14 21:07:30.948051 , 0.0009765625 , 0.0625 , 1.0712890625 , 8.39658119658 , 11.2454212454 , -114.253479853 , -3.60107421875 , 4.80651855469 , 1.12152099609 
2018/05/14 21:07:31.240547 , -0.2265625 , -0.0234375 , 4.1650390625 , 8.39658119658 , 11.245421245