Connecting to 24:71:89:C1:0D:07
time ,acc-x,acc-y,acc-z ,mag-x,mag-y,mag-z ,gyr-x,gyr-y,gyr-z 
2018/05/17 18:30:19.379579 , 0.0 , 0.0 , 0.0 , 0.0 , 0.0 , 0.0 , 0.0 , 0.0 , 0.0 
2018/05/17 18:30:19.644290 , 0.0 , 0.0 , 0.0 , 0.0 , 0.0 , 0.0 , 0.0 , 0.0 , 0.0 
2018/05/17 18:30:19.936580 , 0.0 , 0.0 , 0.0 , 0.0 , 0.0 , 0.0 , 0.0 , 0.0 , 0.0 
2018/05/17 18:30:20.229047 , -0.16796875 , -0.310791015625 , 0.989501953125 , 0.0 , 0.0 , 0.0 , -2.27355957031 , 4.42504882812 , -1.71661376953 
2018/05/17 18:30:20.521760 , -0.16796875 , -0.310791015625 , 0.989501953125 , 0.0 , 0.0 , 0.0 , -2.27355957031 , 4.42504882812 , -1.71661376953 
2018/05/17 18:30:20.814275 , -0.16796875 , -0.310791015625 , 0.989501953125 , 0.0 , 0.0 , 0.0 , -2.27355957031 , 4.42504882812 , -1.71661376953 
2018/05/17 18:30:21.106601 , -0.16796875 , -0.310791015625 , 0.989501953125 , 63.1242979243 , -16.9431013431 , -65.2234432234 , -7.45391845703 , 3.37219238281 , -1.48773193359 
2018/05/17 18:30:21.399071 , -0.18408203125 , -0.35400390625 , 1.0068359375 , 63.1242979243 , -16.9431013431 , -65.2234432234 , -7.45391845703 , 3.37219238281 , -1.48773193359 
2018/05/17 18:30:21.691616 , -0.18408203125 , -0.35400390625 , 1.0068359375 , 63.1242979243 , -16.9431013431 , -65.2234432234 , -7.45391845703 , 3.37219238281 , -1.48773193359 
2018/05/17 18:30:21.984085 , -0.18408203125 , -0.35400390625 , 1.0068359375 , 63.1242979243 , -16.9431013431 , -65.2234432234 , -3.95202636719 , 3.35693359375 , -0.0381469726562 
2018/05/17 18:30:22.276592 , -0.8994140625 , -1.212890625 , 4.2890625 , 67.0227106227 , -19.4920634921 , -70.6212454212 , -3.95202636719 , 3.35693359375 , -0.0381469726562 
2018/05/17 18:30:22.569144 , -0.8994140625 , -1.212890625 , 4.2890625 , 67.0227106227 , -19.4920634921 , -70.6212454212 , -3.95202636719 , 3.35693359375 , -0.0381469726562 
2018/05/17 18:30:22.861610 , -0.8994140625 , -1.212890625 , 4.2890625 , 67.0227106227 , -19.4920634921 , -70.6212454212 , -3.95202636719 , 3.35693359375 , -0.0381469726562 
2018/05/17 18:30:23.154084 , -0.7861328125 , -1.3037109375 , 4.232421875 , 55.9272283272 , -36.884981685 , -262.393162393 , -4.15802001953 , 6.59942626953 , 1.77764892578 
2018/05/17 18:30:23.446727 , -0.7861328125 , -1.3037109375 , 4.232421875 , 55.9272283272 , -36.884981685 , -262.393162393 , -4.15802001953 , 6.59942626953 , 1.77764892578 
2018/05/17 18:30:23.739132 , -0.7861328125 , -1.3037109375 , 4.232421875 , 55.9272283272 , -36.884981685 , -262.393162393 , -4.15802001953 , 6.59942626953 , 1.77764892578 
2018/05/17 18:30:24.031614 , -0.7861328125 , -1.3037109375 , 4.232421875 , 92.6622710623 , -53.3782661783 , -234.654456654 , -3.662109375 , 5.51605224609 , 1.5869140625 
2018/05/17 18:30:24.324066 , -0.9091796875 , -1.2939453125 , 4.0654296875 , 92.6622710623 , -53.3782661783 , -234.654456654 , -3.662109375 , 5.51605224609 , 1.5869140625 
2018/05/17 18:30:24.616778 , -0.9091796875 , -1.2939453125 , 4.0654296875 , 92.6622710623 , -53.3782661783 , -234.654456654 , -3.662109375 , 5.51605224609 , 1.5869140625 
2018/05/17 18:30:24.909096 , -0.9091796875 , -1.2939453125 , 4.0654296875 , 92.6622710623 , -53.3782661783 , -234.654456654 , -3.662109375 , 5.51605224609 , 1.5869140625 
2018/05/17 18:30:25.201615 , -0.76171875 , -1.26953125 , 4.1806640625 , 83.515995116 , -53.6781440781 , -229.106715507 , -3.21960449219 , 6.27899169922 , -1.87683105469 
2018/05/17 18:30:25.494233 , -0.76171875 , -1.26953125 , 4.1806640625 , 83.515995116 , -53.6781440781 , -229.106715507 , -3.21960449219 , 6.27899169922 , -1.87683105469 
2018/05/17 18:30:25.786699 , -0.76171875 , -1.26953125 , 4.1806640625 , 83.515995116 , -53.6781440781 , -229.106715507 , -3.21960449219 , 6.27899169922 , -1.87683105469 
2018/05/17 18:30:26.079101 , -0.76171875 , -1.26953125 , 4.1806640625 , 86.5147741148 , -49.9296703297 , -219.360683761 , -6.35528564453 , 6.08825683594 , 0.595092773438 
2018/05/17 18:30:26.371641 , -0.810546875 , -1.2900390625 , 4.02734375 , 86.5147741148 , -49.9296703297 , -219.360683761 , -6.35528564453 , 6.08825683594 , 0.595092773438 
2018/05/17 18:30:26.664296 , -0.810546875 , -1.2900390625 , 4.02734375 , 86.5147741148 , -49.9296703297 , -219.360683761 , -6.35528564453 , 6.08825683594 , 0.595092773438 
2018/05/17 18:30:26.956641 , -0.810546875 , -1.2900390625 , 4.02734375 , 86.5147741148 , -49.9296703297 , -219.360683761 , -4.37927246094 , 4.22668457031 , -0.190734863281 
2018/05/17 18:30:27.249156 , -0.7666015625 , -1.40625 , 4.0615234375 , 88.0141636142 , -55.9272283272 , -222.20952381 , -4.37927246094 , 4.22668457031 , -0.190734863281 
2018/05/17 18:30:27.541810 , -0.7666015625 , -1.40625 , 4.0615234375 , 88.0141636142 , -55.9272283272 , -222.20952381 , -4.37927246094 , 4.22668457031 , -0.190734863281 
2018/05/17 18:30:27.834297 , -0.7666015625 , -1.40625 , 4.0615234375 , 88.0141636142 , -55.9272283272 , -222.20952381 , -4.37927246094 , 4.22668457031 , -0.190734863281 
2018/05/17 18:30:28.126711 , -0.9833984375 , -1.328125 , 4.1494140625 , 87.5643467643 , -55.6273504274 , -224.158730159 , -3.56292724609 , 6.27899169922 , 1.8310546875 
2018/05/17 18:30:28.419177 , -0.9833984375 , -1.328125 , 4.1494140625 , 87.5643467643 , -55.6273504274 , -224.158730159 , -3.56292724609 , 6.27899169922 , 1.8310546875 
2018/05/17 18:30:28.711663 , -0.9833984375 , -1.328125 , 4.1494140625 , 87.5643467643 , -55.6273504274 , -224.158730159 , -3.56292724609 , 6.27899169922 , 1.8310546875 
2018/05/17 18:30:29.004256 , -0.9833984375 , -1.328125 , 4.1494140625 , 87.5643467643 , -55.6273504274 , -224.158730159 , -3.99017333984 , 2.63977050781 , -1.64031982422 
2018/05/21 14:10:03.873272 , -0.654296875 , -1.3251953125 , 4.2236328125 , 88.463980464 , -58.926007326 , -226.407814408 , -3.99017333984 , 2.63977050781 , -1.64031982422 
2018/05/21 14:10:04.165819 , -0.654296875 , -1.3251953125 , 4.2236328125 , 88.463980464 , -58.926007326 , -226.407814408 , -3.99017333984 , 2.63977050781 , -1.64031982422 
2018/05/21 14:10:04.458216 , -0.654296875 , -1.3251953125 , 4.2236328125 , 88.463980464 , -58.926007326 , -226.407814408 , -3.99017333984 , 2.63977050781 , -1.64031982422 
2018/05/21 14:10:04.750836 , -0.7216796875 , -1.40234375 , 4.2353515625 , 95.810989011 , -57.8764346764 , -161.334310134 , -4.45556640625 , 6.42395019531 , -0.648498535156 
2018/05/21 14:10:05.043380 , -0.7216796875 , -1.40234375 , 4.2353515625 , 95.810989011 , -57.8764346764 , -161.334310134 , -4.45556640625 , 6.42395019531 , -0.648498535156 
2018/05/21 14:10:05.335516 , -0.7216796875 , -1.40234375 , 4.2353515625 , 95.810989011 , -57.8764346764 , -161.334310134 , -4.45556640625 , 6.42395019531 , -0.648498535156 
2018/05/21 14:10:05.627906 , -0.7216796875 , -1.40234375 , 4.2353515625 , 103.607814408 , -77.9682539683 , -206.915750916 , -3.87573242188 , 4.97436523438 , -0.0839233398438 
2018/05/21 14:10:05.920793 , -0.6416015625 , -1.193359375 , 4.029296875 , 103.607814408 , -77.9682539683 , -206.915750916 , -3.87573242188 , 4.97436523438 , -0.0839233398438 
2018/05/21 14:10:06.213327 , -0.6416015625 , -1.193359375 , 4.029296875 , 103.607814408 , -77.9682539683 , -206.915750916 , -3.87573242188 , 4.97436523438 , -0.0839233398438 
2018/05/21 14:10:06.505822 , -0.6416015625 , -1.193359375 , 4.029296875 , 103.607814408 , -77.9682539683 , -206.915750916 , -5.59234619141 , 6.82067871094 , -1.89208984375 
2018/05/21 14:10:06.798298 , -0.65234375 , -1.2373046875 , 4.2060546875 , 98.9597069597 , -72.7203907204 , -198.819047619 , -5.59234619141 , 6.82067871094 , -1.89208984375 
2018/05/21 14:10:07.090758 , -0.65234375 , -1.2373046875 , 4.2060546875 , 98.9597069597 , -72.7203907204 , -198.819047619 , -5.59234619141 , 6.82067871094 , -1.89208984375 
2018/05/21 14:10:07.383264 , -0.65234375 , -1.2373046875 , 4.2060546875 , 98.9597069597 , -72.7203907204 , -198.819047619 , -5.59234619141 , 6.82067871094 , -1.89208984375 
2018/05/21 14:10:07.675775 , -0.65234375 , -1.2373046875 , 4.2060546875 , 95.810989011 , -79.0178266178 , -196.42002442 , -3.662109375 , 3.25775146484 , 0.747680664062 
2018/05/21 14:10:07.968350 , -0.69140625 , -1.173828125 , 4.2080078125 , 95.810989011 , -79.0178266178 , -196.42002442 , -3.662109375 , 3.25775146484 , 0.747680664062 
2018/05/21 14:10:08.260823 , -0.69140625 , -1.173828125 , 4.2080078125 , 95.810989011 , -79.0178266178 , -196.42002442 , -3.662109375 , 3.25775146484 , 0.747680664062 
2018/05/21 14:10:08.553347 , -0.69140625 , -1.173828125 , 4.2080078125 , 95.810989011 , -79.0178266178 , -196.42002442 , -4.01306152344 , 4.44030761719 , -1.02996826172 
2018/05/21 14:10:08.845832 , -0.568359375 , -1.384765625 , 4.0341796875 , 99.8593406593 , -89.0637362637 , -219.060805861 , -4.01306152344 , 4.44030761719 , -1.02996826172 
2018/05/21 14:10:09.138057 , -0.568359375 , -1.384765625 , 4.0341796875 , 99.8593406593 , -89.0637362637 , -219.060805861 , -4.01306152344 , 4.44030761719 , -1.02996826172 
2018/05/21 14:10:09.430556 , -0.568359375 , -1.384765625 , 4.0341796875 , 99.8593406593 , -89.0637362637 , -219.060805861 , -4.01306152344 , 4.44030761719 , -1.02996826172 
2018/05/21 14:10:09.723351 , -0.6611328125 , -1.2021484375 , 4.3154296875 , 102.258363858 , -75.1194139194 , -180.076678877 , -4.40979003906 , 3.57055664062 , 1.44195556641 
2018/05/21 14:10:10.015853 , -0.6611328125 , -1.2021484375 , 4.3154296875 , 102.258363858 , -75.1194139194 , -180.076678877 , -4.40979003906 , 3.57055664062 , 1.44195556641 
2018/05/21 14:10:10.308333 , -0.6611328125 , -1.2021484375 , 4.3154296875 , 102.258363858 , -75.1194139194 , -180.076678877 , -4.40979003906 , 3.57055664062 , 1.44195556641 
2018/05/21 14:10:10.600559 , -0.6611328125 , -1.2021484375 , 4.3154296875 , 98.6598290598 , -75.1194139194 , -181.726007326 , -4.02069091797 , 3.96728515625 , -1.44958496094 
2018/05/21 14:10:10.893081 , -0.6806640625 , -1.2568359375 , 4.2060546875 , 98.6598290598 , -75.1194139194 , -181.726007326 , -4.02069091797 , 3.96728515625 , -1.44958496094 
2018/05/21 14:10:11.185998 , -0.6806640625 , -1.2568359375 , 4.2060546875 , 98.6598290598 , -75.1194139194 , -181.726007326 , -4.02069091797 , 3.96728515625 , -1.44958496094 
2018/05/21 14:10:11.478402 , -0.6806640625 , -1.2568359375 , 4.2060546875 , 98.6598290598 , -75.1194139194 , -181.726007326 , -4.02069091797 , 3.96728515625 , -1.44958496094 
2018/05/21 14:10:11.770560 , -0.6689453125 , -1.294921875 , 3.8212890625 , 101.958485958 , -70.7711843712 , -179.476923077 , -2.685546875 , 6.4697265625 , -0.541687011719 
2018/05/21 14:10:12.063058 , -0.6689453125 , -1.294921875 , 3.8212890625 , 101.958485958 , -70.7711843712 , -179.476923077 , -2.685546875 , 6.4697265625 , -0.541687011719 
2018/05/21 14:10:12.355850 , -0.6689453125 , -1.294921875 , 3.8212890625 , 101.958485958 , -70.7711843712 , -179.476923077 , -2.685546875 , 6.4697265625 , -0.541687011719 
2018/05/21 14:10:12.648310 , -0.6689453125 , -1.294921875 , 3.8212890625 , 99.7094017094 , -71.6708180708 , -179.027106227 , -5.85174560547 , 1.65557861328 , -0.511169433594 
2018/05/21 14:10:12.940832 , -0.5380859375 , -1.2021484375 , 4.0078125 , 99.7094017094 , -71.6708180708 , -179.027106227 , -5.85174560547 , 1.65557861328 , -0.511169433594 
2018/05/21 14:10:13.233470 , -0.5380859375 , -1.2021484375 , 4.0078125 , 99.7094017094 , -71.6708180708 , -179.027106227 , -5.85174560547 , 1.65557861328 , -0.511169433594 
2018/05/21 14:10:13.525610 , -0.5380859375 , -1.2021484375 , 4.0078125 , 99.7094017094 , -71.6708180708 , -179.027106227 , -4.30297851562 , 2.44140625 , -0.267028808594 
2018/05/21 14:10:13.818089 , -0.689453125 , -1.3603515625 , 4.208984375 , 102.258363858 , -71.3709401709 , -175.278632479 , -4.30297851562 , 2.44140625 , -0.267028808594 
2018/05/21 14:10:14.110718 , -0.689453125 , -1.3603515625 , 4.208984375 , 102.258363858 , -71.3709401709 , -175.278632479 , -4.30297851562 , 2.44140625 , -0.267028808594 
2018/05/21 14:10:14.403155 , -0.689453125 , -1.3603515625 , 4.208984375 , 102.258363858 , -71.3709401709 , -175.278632479 , -4.30297851562 , 2.44140625 , -0.267028808594 
2018/05/21 14:10:14.696002 , -0.6884765625 , -1.4892578125 , 4.1826171875 , 100.009279609 , -70.1714285714 , -178.727228327 , -4.67681884766 , 3.69262695312 , -1.32751464844 
2018/05/21 14:10:14.988114 , -0.6884765625 , -1.4892578125 , 4.1826171875 , 100.009279609 , -70.1714285714 , -178.727228327 , -4.67681884766 , 3.69262695312 , -1.32751464844 
2018/05/21 14:10:15.280735 , -0.6884765625 , -1.4892578125 , 4.1826171875 , 100.009279609 , -70.1714285714 , -178.727228327 , -4.67681884766 , 3.69262695312 , -1.32751464844 
2018/05/21 14:10:15.573106 , -0.6884765625 , -1.4892578125 , 4.1826171875 , 100.009279609 , -70.1714285714 , -178.727228327 , -2.69317626953 , 6.53076171875 , 0.114440917969 
2018/05/21 14:10:15.865638 , -0.49609375 , -1.2158203125 , 4.0478515625 , 96.8605616606 , -65.6732600733 , -170.78046398 , -2.69317626953 , 6.53076171875 , 0.114440917969 
2018/05/21 14:10:16.158311 , -0.49609375 , -1.2158203125 , 4.0478515625 , 96.8605616606 , -65.6732600733 , -170.78046398 , -2.69317626953 , 6.53076171875 , 0.114440917969 
2018/05/21 14:10:16.450402 , -0.49609375 , -1.2158203125 , 4.0478515625 , 96.8605616606 , -65.6732600733 , -170.78046398 , -2.69317626953 , 6.53076171875 , 0.114440917969 
2018/05/21 14:10:16.742831 , -0.5703125 , -1.2099609375 , 4.1455078125 , 105.407081807 , -74.5196581197 , -181.726007326 , -4.84466552734 , 4.69207763672 , 1.05285644531 
2018/05/21 14:10:17.035799 , -0.5703125 , -1.2099609375 , 4.1455078125 , 105.407081807 , -74.5196581197 , -181.726007326 , -4.84466552734 , 4.69207763672 , 1.05285644531 
2018/05/21 14:10:17.328171 , -0.5703125 , -1.2099609375 , 4.1455078125 , 105.407081807 , -74.5196581197 , -181.726007326 , -4.84466552734 , 4.69207763672 , 1.05285644531 
2018/05/21 14:10:17.620615 , -0.5703125 , -1.2099609375 , 4.1455078125 , 105.407081807 , -74.5196581197 , -181.726007326 , -3.55529785156 , 4.8828125 , -0.724792480469 
2018/05/21 14:10:17.913128 , -0.74609375 , -1.2412109375 , 4.353515625 , 105.407081807 , -74.5196581197 , -181.726007326 , -3.55529785156 , 4.8828125 , -0.724792480469 
2018/05/21 14:10:18.205784 , -0.74609375 , -1.2412109375 , 4.353515625 , 105.407081807 , -74.5196581197 , -181.726007326 , -3.55529785156 , 4.8828125 , -0.724792480469 
2018/05/21 14:10:18.498184 , -0.74609375 , -1.2412109375 , 4.353515625 , 105.407081807 , -74.5196581197 , -181.726007326 , -6.02722167969 , 6.57653808594 , -0.556945800781 
2018/05/21 14:10:18.790630 , -0.55859375 , -1.21875 , 3.943359375 , 91.6126984127 , -71.6708180708 , -187.273748474 , -6.02722167969 , 6.57653808594 , -0.556945800781 
2018/05/21 14:10:19.083308 , -0.55859375 , -1.21875 , 3.943359375 , 91.6126984127 , -71.6708180708 , -187.273748474 , -6.02722167969 , 6.57653808594 , -0.556945800781 
2018/05/21 14:10:19.375921 , -0.55859375 , -1.21875 , 3.943359375 , 91.6126984127 , -71.6708180708 , -187.273748474 , -6.02722167969 , 6.57653808594 , -0.556945800781 
2018/05/21 14:10:19.668369 , -0.55859375 , -1.21875 , 3.943359375 , 91.6126984127 , -71.6708180708 , -187.273748474 , -1.88446044922 , 4.40216064453 , -0.617980957031 
2018/05/21 14:10:19.960605 , -0.771484375 , -1.0625 , 3.998046875 , 91.6126984127 , -71.6708180708 , -187.273748474 , -1.88446044922 , 4.40216064453 , -0.617980957031 
2018/05/21 14:10:20.253149 , -0.771484375 , -1.0625 , 3.998046875 , 91.6126984127 , -71.6708180708 , -187.273748474 , -1.88446044922 , 4.40216064453 , -0.617980957031 
2018/05/21 14:10:20.545784 , -0.771484375 , -1.0625 , 3.998046875 , 91.6126984127 , -71.6708180708 , -187.273748474 , -4.74548339844 , 3.13568115234 , -0.282287597656 
2018/05/21 14:10:20.838149 , -0.658203125 , -1.2119140625 , 4.236328125 , 90.2632478632 , -69.1218559219 , -179.776800977 , -4.74548339844 , 3.13568115234 , -0.282287597656 
2018/05/21 14:10:21.130850 , -0.658203125 , -1.2119140625 , 4.236328125 , 90.2632478632 , -69.1218559219 , -179.776800977 , -4.74548339844 , 3.13568115234 , -0.282287597656 
2018/05/21 14:10:21.423208 , -0.658203125 , -1.2119140625 , 4.236328125 , 90.2632478632 , -69.1218559219 , -179.776800977 , -4.74548339844 , 3.13568115234 , -0.282287597656 
2018/05/21 14:10:21.715638 , -0.4765625 , -1.2783203125 , 4.4375 , 90.2632478632 , -69.1218559219 , -179.776800977 , -4.40216064453 , 4.53948974609 , 0.526428222656 
2018/05/21 14:10:22.008180 , -0.4765625 , -1.2783203125 , 4.4375 , 90.2632478632 , -69.1218559219 , -179.776800977 , -4.40216064453 , 4.53948974609 , 0.526428222656 
2018/05/21 14:10:22.300922 , -0.4765625 , -1.2783203125 , 4.4375 , 90.2632478632 , -69.1218559219 , -179.776800977 , -4.40216064453 , 4.53948974609 , 0.526428222656 
2018/05/21 14:10:22.593182 , -0.4765625 , -1.2783203125 , 4.4375 , 89.9633699634 , -67.7724053724 , -180.076678877 , -4.82940673828 , 5.4931640625 , -0.8544921875 
2018/05/21 14:10:22.885652 , -0.6259765625 , -1.263671875 , 4.2392578125 , 89.9633699634 , -67.7724053724 , -180.076678877 , -4.82940673828 , 5.4931640625 , -0.8544921875 
2018/05/21 14:10:23.178310 , -0.6259765625 , -1.263671875 , 4.2392578125 , 89.9633699634 , -67.7724053724 , -180.076678877 , -4.82940673828 , 5.4931640625 , -0.8544921875 
2018/05/21 14:10:23.470715 , -0.6259765625 , -1.263671875 , 4.2392578125 , 89.9633699634 , -67.7724053724 , -180.076678877 , -4.82940673828 , 5.4931640625 , -0.8544921875 
2018/05/21 14:10:23.763212 , -0.7197265625 , -1.23828125 , 4.255859375 , 89.9633699634 , -67.7724053724 , -180.076678877 , -4.89807128906 , 4.54711914062 , -0.518798828125 
2018/05/21 14:10:24.055860 , -0.7197265625 , -1.23828125 , 4.255859375 , 89.9633699634 , -67.7724053724 , -180.076678877 , -4.89807128906 , 4.54711914062 , -0.518798828125 
2018/05/21 14:10:24.348222 , -0.7197265625 , -1.23828125 , 4.255859375 , 89.9633699634 , -67.7724053724 , -180.076678877 , -4.89807128906 , 4.54711914062 , -0.518798828125 
2018/05/21 14:10:24.640694 , -0.7197265625 , -1.23828125 , 4.255859375 , 88.463980464 , -66.422954823 , -183.075457875 , -4.09698486328 , 4.14276123047 , -1.16729736328 
2018/05/21 14:10:24.933166 , -0.810546875 , -1.416015625 , 4.0400390625 , 88.463980464 , -66.422954823 , -183.075457875 , -4.09698486328 , 4.14276123047 , -1.16729736328 
2018/05/21 14:10:25.225676 , -0.810546875 , -1.416015625 , 4.0400390625 , 88.463980464 , -66.422954823 , -183.075457875 , -4.09698486328 , 4.14276123047 , -1.16729736328 
2018/05/21 14:10:25.518420 , -0.810546875 , -1.416015625 , 4.0400390625 , 88.463980464 , -66.422954823 , -183.075457875 , -4.90570068359 , 5.95092773438 , -2.73132324219 
2018/05/21 14:10:25.810728 , -0.740234375 , -1.203125 , 4.0439453125 , 89.5135531136 , -71.6708180708 , -188.623199023 , -4.90570068359 , 5.95092773438 , -2.73132324219 
2018/05/21 14:10:26.103401 , -0.740234375 , -1.203125 , 4.0439453125 , 89.5135531136 , -71.6708180708 , -188.623199023 , -4.90570068359 , 5.95092773438 , -2.73132324219 
2018/05/21 14:10:26.395762 , -0.740234375 , -1.203125 , 4.0439453125 , 89.5135531136 , -71.6708180708 , -188.623199023 , -4.90570068359 , 5.95092773438 , -2.73132324219 
2018/05/21 14:10:26.688191 , -0.78125 , -1.2626953125 , 4.2666015625 , 102.558241758 , -75.1194139194 , -196.42002442 , -4.28771972656 , 5.96618652344 , -1.15203857422 
2018/05/21 14:10:26.980679 , -0.78125 , -1.2626953125 , 4.2666015625 , 102.558241758 , -75.1194139194 , -196.42002442 , -4.28771972656 , 5.96618652344 , -1.15203857422 
2018/05/21 14:10:27.273240 , -0.78125 , -1.2626953125 , 4.2666015625 , 102.558241758 , -75.1194139194 , -196.42002442 , -4.28771972656 , 5.96618652344 , -1.15203857422 
2018/05/21 14:10:27.565723 , -0.78125 , -1.2626953125 , 4.2666015625 , 102.558241758 , -75.1194139194 , -196.42002442 , -8.67462158203 , 6.73675537109 , 0.556945800781 
2018/05/21 14:10:27.858263 , -0.65234375 , -1.2939453125 , 4.37109375 , 86.5147741148 , -67.6224664225 , -176.178266178 , -8.67462158203 , 6.73675537109 , 0.556945800781 
2018/05/21 14:10:28.150754 , -0.65234375 , -1.2939453125 , 4.37109375 , 86.5147741148 , -67.6224664225 , -176.178266178 , -8.67462158203 , 6.73675537109 , 0.556945800781 
2018/05/21 14:10:28.443281 , -0.65234375 , -1.2939453125 , 4.37109375 , 86.5147741148 , -67.6224664225 , -176.178266178 , -8.67462158203 , 6.73675537109 , 0.556945800781 
2018/05/21 14:10:28.735704 , -0.4951171875 , -1.2412109375 , 4.4443359375 , 69.2717948718 , -84.5655677656 , -228.656898657 , -4.638671875 , 4.8828125 , -0.175476074219 
2018/05/21 14:10:29.028385 , -0.4951171875 , -1.2412109375 , 4.4443359375 , 69.2717948718 , -84.5655677656 , -228.656898657 , -4.638671875 , 4.8828125 , -0.175476074219 
2018/05/21 14:10:29.321103 , -0.4951171875 , -1.2412109375 , 4.4443359375 , 69.2717948718 , -84.5655677656 , -228.656898657 , -4.638671875 , 4.8828125 , -0.175476074219 
2018/05/21 14:10:29.613251 , -0.4951171875 , -1.2412109375 , 4.4443359375 , 69.2717948718 , -84.5655677656 , -228.656898657 , -3.63159179688 , 4.62341308594 , 0.930786132812 
2018/05/21 14:10:29.905759 , -0.5927734375 , -1.0625 , 4.0087890625 , 69.2717948718 , -84.5655677656 , -228.656898657 , -3.63159179688 , 4.62341308594 , 0.930786132812 
2018/05/21 14:10:30.198274 , -0.5927734375 , -1.0625 , 4.0087890625 , 69.2717948718 , -84.5655677656 , -228.656898657 , -3.63159179688 , 4.62341308594 , 0.930786132812 
2018/05/21 14:10:30.490730 , -0.5927734375 , -1.0625 , 4.0087890625 , 69.2717948718 , -84.5655677656 , -228.656898657 , -3.63159179688 , 4.62341308594 , 0.930786132812 
2018/05/21 14:10:30.783261 , -0.595703125 , -1.224609375 , 4.298828125 , 84.1157509158 , -84.1157509158 , -203.467155067 , -5.01251220703 , 3.90625 , -1.90734863281 
2018/05/21 14:10:31.075912 , -0.595703125 , -1.224609375 , 4.298828125 , 84.1157509158 , -84.1157509158 , -203.467155067 , -5.01251220703 , 3.90625 , -1.90734863281 
2018/05/21 14:10:31.368222 , -0.595703125 , -1.224609375 , 4.298828125 , 84.1157509158 , -84.1157509158 , -203.467155067 , -5.01251220703 , 3.90625 , -1.90734863281 
2018/05/21 14:10:31.660757 , -0.595703125 , -1.224609375 , 4.298828125 , 94.7614163614 , -86.064957265 , -216.511843712 , -4.80651855469 , 5.02777099609 , -1.79290771484 
2018/05/21 14:10:31.953240 , -0.70703125 , -1.19140625 , 4.4794921875 , 94.7614163614 , -86.064957265 , -216.511843712 , -4.80651855469 , 5.02777099609 , -1.79290771484 
2018/05/21 14:10:32.245750 , -0.70703125 , -1.19140625 , 4.4794921875 , 94.7614163614 , -86.064957265 , -216.511843712 , -4.80651855469 , 5.02777099609 , -1.79290771484 
2018/05/21 14:10:32.538428 , -0.70703125 , -1.19140625 , 4.4794921875 , 94.7614163614 , -86.064957265 , -216.511843712 , -5.29479980469 , 5.27954101562 , 1.04522705078 
2018/05/21 14:10:32.830791 , -0.41015625 , -1.3359375 , 4.1396484375 , 94.1616605617 , -86.064957265 , -216.511843712 , -5.29479980469 , 5.27954101562 , 1.04522705078 
2018/05/21 14:10:33.123509 , -0.41015625 , -1.3359375 , 4.1396484375 , 94.1616605617 , -86.064957265 , -216.511843712 , -5.29479980469 , 5.27954101562 , 1.04522705078 
2018/05/21 14:10:33.415992 , -0.41015625 , -1.3359375 , 4.1396484375 , 94.1616605617 , -86.064957265 , -216.511843712 , -5.29479980469 , 5.27954101562 , 1.04522705078 
2018/05/21 14:10:33.708292 , -0.5498046875 , -1.447265625 , 4.3291015625 , 97.3103785104 , -87.8642246642 , -213.812942613 , -3.89099121094 , 4.17327880859 , 0.0991821289062 
2018/05/21 14:10:34.000819 , -0.5498046875 , -1.447265625 , 4.3291015625 , 97.3103785104 , -87.8642246642 , -213.812942613 , -3.89099121094 , 4.17327880859 , 0.0991821289062 
2018/05/21 14:10:34.293319 , -0.5498046875 , -1.447265625 , 4.3291015625 , 97.3103785104 , -87.8642246642 , -213.812942613 , -3.89099121094 , 4.17327880859 , 0.0991821289062 
2018/05/21 14:10:34.585828 , -0.5498046875 , -1.447265625 , 4.3291015625 , 97.3103785104 , -87.8642246642 , -213.812942613 , -5.28717041016 , 5.71441650391 , -1.23596191406 
2018/05/21 14:10:34.878280 , -0.8046875 , -1.3291015625 , 4.3115234375 , 97.7601953602 , -88.7638583639 , -210.214407814 , -5.28717041016 , 5.71441650391 , -1.23596191406 
2018/05/21 14:10:35.170847 , -0.8046875 , -1.3291015625 , 4.3115234375 , 97.7601953602 , -88.7638583639 , -210.214407814 , -5.28717041016 , 5.71441650391 , -1.23596191406 
2018/05/21 14:10:35.463293 , -0.8046875 , -1.3291015625 , 4.3115234375 , 97.7601953602 , -88.7638583639 , -210.214407814 , -5.28717041016 , 5.71441650391 , -1.23596191406 
2018/05/21 14:10:35.756020 , -0.5859375 , -1.30078125 , 4.1875 , 94.4615384615 , -88.1641025641 , -221.60976801 , -2.88391113281 , 6.41632080078 , -0.381469726562 
2018/05/21 14:10:36.048510 , -0.5859375 , -1.30078125 , 4.1875 , 94.4615384615 , -88.1641025641 , -221.60976801 , -2.88391113281 , 6.41632080078 , -0.381469726562 
2018/05/21 14:10:36.341008 , -0.5859375 , -1.30078125 , 4.1875 , 94.4615384615 , -88.1641025641 , -221.60976801 , -2.88391113281 , 6.41632080078 , -0.381469726562 
2018/05/21 14:10:36.633390 , -0.5859375 , -1.30078125 , 4.1875 , 91.1628815629 , -86.6647130647 , -221.45982906 , -6.85882568359 , 3.67736816406 , -0.312805175781 
2018/05/21 14:10:36.925983 , -0.5810546875 , -1.2578125 , 4.3193359375 , 91.1628815629 , -86.6647130647 , -221.45982906 , -6.85882568359 , 3.67736816406 , -0.312805175781 
2018/05/21 14:10:37.218758 , -0.5810546875 , -1.2578125 , 4.3193359375 , 91.1628815629 , -86.6647130647 , -221.45982906 , -6.85882568359 , 3.67736816406 , -0.312805175781 
2018/05/21 14:10:37.511102 , -0.5810546875 , -1.2578125 , 4.3193359375 , 91.1628815629 , -86.6647130647 , -221.45982906 , -2.89154052734 , 4.85992431641 , 0.877380371094 
2018/05/21 14:10:37.803635 , -0.501953125 , -1.21484375 , 4.1201171875 , 80.967032967 , -101.058852259 , -266.441514042 , -2.89154052734 , 4.85992431641 , 0.877380371094 
2018/05/21 14:10:38.096303 , -0.501953125 , -1.21484375 , 4.1201171875 , 80.967032967 , -101.058852259 , -266.441514042 , -2.89154052734 , 4.85992431641 , 0.877380371094 
2018/05/21 14:10:38.388701 , -0.501953125 , -1.21484375 , 4.1201171875 , 80.967032967 , -101.058852259 , -266.441514042 , -2.89154052734 , 4.85992431641 , 0.877380371094 
2018/05/21 14:10:38.681157 , -0.501953125 , -1.21484375 , 4.1201171875 , 91.3128205128 , -87.8642246642 , -221.01001221 , -4.48608398438 , 3.91387939453 , -2.18200683594 
2018/05/21 14:10:38.973719 , -0.755859375 , -1.3447265625 , 4.58203125 , 91.3128205128 , -87.8642246642 , -221.01001221 , -4.48608398438 , 3.91387939453 , -2.18200683594 
2018/05/21 14:10:39.266294 , -0.755859375 , -1.3447265625 , 4.58203125 , 91.3128205128 , -87.8642246642 , -221.01001221 , -4.48608398438 , 3.91387939453 , -2.18200683594 
2018/05/21 14:10:39.558784 , -0.755859375 , -1.3447265625 , 4.58203125 , 91.3128205128 , -87.8642246642 , -221.01001221 , -4.7607421875 , 3.37982177734 , -1.92260742188 
2018/05/21 14:10:39.851325 , -0.5234375 , -1.443359375 , 4.2353515625 , 87.1145299145 , -88.1641025641 , -224.758485958 , -4.7607421875 , 3.37982177734 , -1.92260742188 
2018/05/21 14:10:40.143999 , -0.5234375 , -1.443359375 , 4.2353515625 , 87.1145299145 , -88.1641025641 , -224.758485958 , -4.7607421875 , 3.37982177734 , -1.92260742188 
2018/05/21 14:10:40.436398 , -0.5234375 , -1.443359375 , 4.2353515625 , 87.1145299145 , -88.1641025641 , -224.758485958 , -4.7607421875 , 3.37982177734 , -1.92260742188 
2018/05/21 14:10:40.729003 , -0.599609375 , -1.3623046875 , 4.4794921875 , 91.4627594628 , -87.7142857143 , -216.661782662 , -2.97546386719 , 3.7841796875 , -4.24194335938 
2018/05/21 14:10:41.021482 , -0.599609375 , -1.3623046875 , 4.4794921875 , 91.4627594628 , -87.7142857143 , -216.661782662 , -2.97546386719 , 3.7841796875 , -4.24194335938 
2018/05/21 14:10:41.314482 , -0.599609375 , -1.3623046875 , 4.4794921875 , 91.4627594628 , -87.7142857143 , -216.661782662 , -2.97546386719 , 3.7841796875 , -4.24194335938 
2018/05/21 14:10:41.606549 , -0.599609375 , -1.3623046875 , 4.4794921875 , 92.0625152625 , -91.0129426129 , -228.057142857 , -4.40216064453 , 6.09588623047 , 0.335693359375 
2018/05/21 14:10:41.899064 , -0.5615234375 , -1.294921875 , 4.244140625 , 92.0625152625 , -91.0129426129 , -228.057142857 , -4.40216064453 , 6.09588623047 , 0.335693359375 
2018/05/21 14:10:42.191823 , -0.5615234375 , -1.294921875 , 4.244140625 , 92.0625152625 , -91.0129426129 , -228.057142857 , -4.40216064453 , 6.09588623047 , 0.335693359375 
2018/05/21 14:10:42.484195 , -0.5615234375 , -1.294921875 , 4.244140625 , 92.0625152625 , -91.0129426129 , -228.057142857 , -4.40216064453 , 6.09588623047 , 0.335693359375 
2018/05/21 14:10:42.776959 , -0.470703125 , -1.2978515625 , 4.2431640625 , 90.7130647131 , -89.0637362637 , -227.607326007 , -4.19616699219 , 2.47192382812 , -0.633239746094 
2018/05/21 14:10:43.069506 , -0.470703125 , -1.2978515625 , 4.2431640625 , 90.7130647131 , -89.0637362637 , -227.607326007 , -4.19616699219 , 2.47192382812 , -0.633239746094 
2018/05/21 14:10:43.362330 , -0.470703125 , -1.2978515625 , 4.2431640625 , 90.7130647131 , -89.0637362637 , -227.607326007 , -4.19616699219 , 2.47192382812 , -0.633239746094 
2018/05/21 14:10:43.654321 , -0.470703125 , -1.2978515625 , 4.2431640625 , 91.0129426129 , -87.5643467643 , -215.912087912 , -3.75366210938 , 1.71661376953 , -1.44958496094 
2018/05/21 14:10:43.946789 , -0.708984375 , -1.275390625 , 4.1318359375 , 91.0129426129 , -87.5643467643 , -215.912087912 , -3.75366210938 , 1.71661376953 , -1.44958496094 
2018/05/21 14:10:44.239586 , -0.708984375 , -1.275390625 , 4.1318359375 , 91.0129426129 , -87.5643467643 , -215.912087912 , -3.75366210938 , 1.71661376953 , -1.44958496094 
2018/05/21 14:10:44.532156 , -0.708984375 , -1.275390625 , 4.1318359375 , 91.0129426129 , -87.5643467643 , -215.912087912 , -3.25012207031 , 3.99780273438 , -2.29644775391 
2018/05/21 14:10:44.824482 , -0.689453125 , -1.2998046875 , 4.3505859375 , 91.6126984127 , -87.1145299145 , -217.561416361 , -3.25012207031 , 3.99780273438 , -2.29644775391 
2018/05/21 14:10:45.117082 , -0.689453125 , -1.2998046875 , 4.3505859375 , 91.6126984127 , -87.1145299145 , -217.561416361 , -3.25012207031 , 3.99780273438 , -2.29644775391 
2018/05/21 14:10:45.409490 , -0.689453125 , -1.2998046875 , 4.3505859375 , 91.6126984127 , -87.1145299145 , -217.561416361 , -3.25012207031 , 3.99780273438 , -2.29644775391 
2018/05/21 14:10:45.702076 , -0.6953125 , -1.181640625 , 4.302734375 , 91.0129426129 , -88.1641025641 , -221.60976801 , -4.98962402344 , 3.73840332031 , -2.18200683594 
2018/05/21 14:10:45.994878 , -0.6953125 , -1.181640625 , 4.302734375 , 91.0129426129 , -88.1641025641 , -221.60976801 , -4.98962402344 , 3.73840332031 , -2.18200683594 
2018/05/21 14:10:46.287051 , -0.6953125 , -1.181640625 , 4.302734375 , 91.0129426129 , -88.1641025641 , -221.60976801 , -4.98962402344 , 3.73840332031 , -2.18200683594 
2018/05/21 14:10:46.579662 , -0.6953125 , -1.181640625 , 4.302734375 , 91.0129426129 , -88.1641025641 , -221.60976801 , -3.88336181641 , 2.34222412109 , -2.22778320312 
2018/05/21 14:10:46.872138 , -0.51953125 , -1.189453125 , 4.2783203125 , 91.3128205128 , -85.4652014652 , -212.463492063 , -3.88336181641 , 2.34222412109 , -2.22778320312 
2018/05/21 14:10:47.164866 , -0.51953125 , -1.189453125 , 4.2783203125 , 91.3128205128 , -85.4652014652 , -212.463492063 , -3.88336181641 , 2.34222412109 , -2.22778320312 
2018/05/21 14:10:47.457071 , -0.51953125 , -1.189453125 , 4.2783203125 , 91.3128205128 , -85.4652014652 , -212.463492063 , -3.88336181641 , 2.34222412109 , -2.22778320312 
2018/05/21 14:10:47.749623 , -0.5927734375 , -1.28515625 , 4.2275390625 , 91.6126984127 , -88.9137973138 , -217.561416361 , -4.35638427734 , 5.2490234375 , 0.274658203125 
2018/05/21 14:10:48.042285 , -0.5927734375 , -1.28515625 , 4.2275390625 , 91.6126984127 , -88.9137973138 , -217.561416361 , -4.35638427734 , 5.2490234375 , 0.274658203125 
2018/05/21 14:10:48.334623 , -0.5927734375 , -1.28515625 , 4.2275390625 , 91.6126984127 , -88.9137973138 , -217.561416361 , -4.35638427734 , 5.2490234375 , 0.274658203125 
2018/05/21 14:10:48.627305 , -0.5927734375 , -1.28515625 , 4.2275390625 , 91.4627594628 , -89.8134310134 , -225.957997558 , -4.41741943359 , 2.35748291016 , -1.48010253906 
2018/05/21 14:10:48.919816 , -0.5595703125 , -1.306640625 , 4.2998046875 , 91.4627594628 , -89.8134310134 , -225.957997558 , -4.41741943359 , 2.35748291016 , -1.48010253906 
2018/05/21 14:10:49.212459 , -0.5595703125 , -1.306640625 , 4.2998046875 , 91.4627594628 , -89.8134310134 , -225.957997558 , -4.41741943359 , 2.35748291016 , -1.48010253906 
2018/05/21 14:10:49.504720 , -0.5595703125 , -1.306640625 , 4.2998046875 , 91.4627594628 , -89.8134310134 , -225.957997558 , -3.90625 , 3.25775146484 , -0.190734863281 
2018/05/21 14:10:49.797206 , -0.53125 , -1.2373046875 , 4.37890625 , 81.2669108669 , -92.9621489621 , -246.04981685 , -3.90625 , 3.25775146484 , -0.190734863281 
2018/05/21 14:10:50.089930 , -0.53125 , -1.2373046875 , 4.37890625 , 81.2669108669 , -92.9621489621 , -246.04981685 , -3.90625 , 3.25775146484 , -0.190734863281 
2018/05/21 14:10:50.382398 , -0.53125 , -1.2373046875 , 4.37890625 , 81.2669108669 , -92.9621489621 , -246.04981685 , -3.90625 , 3.25775146484 , -0.190734863281 
2018/05/21 14:10:50.674778 , -0.53125 , -1.2373046875 , 4.37890625 , 87.4144078144 , -90.2632478632 , -230.156288156 , -3.88336181641 , 5.37109375 , -0.579833984375 
2018/05/21 14:10:50.967289 , -0.609375 , -1.24609375 , 4.3583984375 , 87.4144078144 , -90.2632478632 , -230.156288156 , -3.88336181641 , 5.37109375 , -0.579833984375 
2018/05/21 14:10:51.259861 , -0.609375 , -1.24609375 , 4.3583984375 , 87.4144078144 , -90.2632478632 , -230.156288156 , -3.88336181641 , 5.37109375 , -0.579833984375 
2018/05/21 14:10:51.552351 , -0.609375 , -1.24609375 , 4.3583984375 , 87.4144078144 , -90.2632478632 , -230.156288156 , -3.60107421875 , 4.02069091797 , -1.03759765625 
2018/05/21 14:10:51.844847 , -0.7373046875 , -1.294921875 , 4.4267578125 , 88.6139194139 , -91.9125763126 , -230.606105006 , -3.60107421875 , 4.02069091797 , -1.03759765625 
2018/05/21 14:10:52.137581 , -0.7373046875 , -1.294921875 , 4.4267578125 , 88.6139194139 , -91.9125763126 , -230.606105006 , -3.60107421875 , 4.02069091797 , -1.03759765625 
2018/05/21 14:10:52.429908 , -0.7373046875 , -1.294921875 , 4.4267578125 , 88.6139194139 , -91.9125763126 , -230.606105006 , -3.60107421875 , 4.02069091797 , -1.03759765625 
2018/05/21 14:10:52.722423 , -0.6796875 , -1.2529296875 , 4.265625 , 87.4144078144 , -91.7626373626 , -232.255433455 , -4.32586669922 , 1.99890136719 , -0.518798828125 
2018/05/21 14:10:53.015204 , -0.6796875 , -1.2529296875 , 4.265625 , 87.4144078144 , -91.7626373626 , -232.255433455 , -4.32586669922 , 1.99890136719 , -0.518798828125 
2018/05/21 14:10:53.307643 , -0.6796875 , -1.2529296875 , 4.265625 , 87.4144078144 , -91.7626373626 , -232.255433455 , -4.32586669922 , 1.99890136719 , -0.518798828125 
2018/05/21 14:10:53.599982 , -0.6796875 , -1.2529296875 , 4.265625 , 89.0637362637 , -89.8134310134 , -222.20952381 , -5.89752197266 , 4.57763671875 , -0.808715820312 
2018/05/21 14:10:53.892493 , -0.685546875 , -1.2646484375 , 4.1845703125 , 89.0637362637 , -89.8134310134 , -222.20952381 , -5.89752197266 , 4.57763671875 , -0.808715820312 
2018/05/21 14:10:54.185254 , -0.685546875 , -1.2646484375 , 4.1845703125 , 89.0637362637 , -89.8134310134 , -222.20952381 , -5.89752197266 , 4.57763671875 , -0.808715820312 
2018/05/21 14:10:54.477899 , -0.685546875 , -1.2646484375 , 4.1845703125 , 89.0637362637 , -89.8134310134 , -222.20952381 , -5.89752197266 , 4.57763671875 , -0.808715820312 
2018/05/21 14:10:54.770083 , -0.4716796875 , -1.205078125 , 4.388671875 , 89.0637362637 , -89.8134310134 , -222.20952381 , -3.34167480469 , 3.35693359375 , -1.35040283203 
2018/05/21 14:10:55.062727 , -0.4716796875 , -1.205078125 , 4.388671875 , 89.0637362637 , -89.8134310134 , -222.20952381 , -3.34167480469 , 3.35693359375 , -1.35040283203 
2018/05/21 14:10:55.355089 , -0.4716796875 , -1.205078125 , 4.388671875 , 89.0637362637 , -89.8134310134 , -222.20952381 , -3.34167480469 , 3.35693359375 , -1.35040283203 
2018/05/21 14:10:55.647561 , -0.4716796875 , -1.205078125 , 4.388671875 , 83.2161172161 , -85.4652014652 , -202.267643468 , -2.73132324219 , 2.88391113281 , 0.0228881835938 
2018/05/21 14:10:55.940126 , -0.7353515625 , -1.1943359375 , 4.2685546875 , 83.2161172161 , -85.4652014652 , -202.267643468 , -2.73132324219 , 2.88391113281 , 0.0228881835938 
2018/05/21 14:10:56.232749 , -0.7353515625 , -1.1943359375 , 4.2685546875 , 83.2161172161 , -85.4652014652 , -202.267643468 , -2.73132324219 , 2.88391113281 , 0.0228881835938 
2018/05/21 14:10:56.525202 , -0.7353515625 , -1.1943359375 , 4.2685546875 , 83.2161172161 , -85.4652014652 , -202.267643468 , -3.59344482422 , 2.28118896484 , -1.08337402344 
2018/05/21 14:10:56.817728 , -0.5244140625 , -1.43359375 , 4.2919921875 , 83.2161172161 , -85.4652014652 , -202.267643468 , -3.59344482422 , 2.28118896484 , -1.08337402344 
2018/05/21 14:10:57.110450 , -0.5244140625 , -1.43359375 , 4.2919921875 , 83.2161172161 , -85.4652014652 , -202.267643468 , -3.59344482422 , 2.28118896484 , -1.08337402344 
2018/05/21 14:10:57.402724 , -0.5244140625 , -1.43359375 , 4.2919921875 , 83.2161172161 , -85.4652014652 , -202.267643468 , -3.59344482422 , 2.28118896484 , -1.08337402344 
2018/05/21 14:10:57.695208 , -0.505859375 , -1.30078125 , 4.240234375 , 77.0686202686 , -83.8158730159 , -210.514285714 , -4.98962402344 , 3.37982177734 , -3.11279296875 
2018/05/21 14:10:57.987709 , -0.505859375 , -1.30078125 , 4.240234375 , 77.0686202686 , -83.8158730159 , -210.514285714 , -4.98962402344 , 3.37982177734 , -3.11279296875 
2018/05/21 14:10:58.280242 , -0.505859375 , -1.30078125 , 4.240234375 , 77.0686202686 , -83.8158730159 , -210.514285714 , -4.98962402344 , 3.37982177734 , -3.11279296875 
2018/05/21 14:10:58.572723 , -0.505859375 , -1.30078125 , 4.240234375 , 77.0686202686 , -83.8158730159 , -210.514285714 , -3.2958984375 , 3.31878662109 , 0.129699707031 
2018/05/21 14:10:58.865250 , -0.669921875 , -1.2216796875 , 4.19140625 , 77.0686202686 , -83.8158730159 , -210.514285714 , -3.2958984375 , 3.31878662109 , 0.129699707031 
2018/05/21 14:10:59.157810 , -0.669921875 , -1.2216796875 , 4.19140625 , 77.0686202686 , -83.8158730159 , -210.514285714 , -3.2958984375 , 3.31878662109 , 0.129699707031 
2018/05/21 14:10:59.450283 , -0.669921875 , -1.2216796875 , 4.19140625 , 77.0686202686 , -83.8158730159 , -210.514285714 , -3.2958984375 , 3.31878662109 , 0.129699707031 
2018/05/21 14:10:59.742831 , -0.71484375 , -1.416015625 , 4.3388671875 , 74.2197802198 , -84.8654456654 , -217.111599512 , -3.76129150391 , 6.01959228516 , -0.0152587890625 
2018/05/21 14:11:00.035467 , -0.71484375 , -1.416015625 , 4.3388671875 , 74.2197802198 , -84.8654456654 , -217.111599512 , -3.76129150391 , 6.01959228516 , -0.0152587890625 
2018/05/21 14:11:00.327827 , -0.71484375 , -1.416015625 , 4.3388671875 , 74.2197802198 , -84.8654456654 , -217.111599512 , -3.76129150391 , 6.01959228516 , -0.0152587890625 
2018/05/21 14:11:00.620292 , -0.71484375 , -1.416015625 , 4.3388671875 , 74.2197802198 , -84.8654456654 , -217.111599512 , -2.71606445312 , 7.41577148438 , -3.38745117188 
2018/05/21 14:11:00.961636 , -0.9990234375 , -1.328125 , 4.189453125 , 74.2197802198 , -84.8654456654 , -217.111599512 , -2.71606445312 , 7.41577148438 , -3.38745117188 
2018/05/21 14:11:01.254218 , -0.9990234375 , -1.328125 , 4.189453125 , 74.2197802198 , -84.8654456654 , -217.111599512 , -2.71606445312 , 7.41577148438 , -3.38745117188 
2018/05/21 14:11:01.546685 , -0.9990234375 , -1.328125 , 4.189453125 , 74.2197802198 , -84.8654456654 , -217.111599512 , -4.67681884766 , 2.50244140625 , -4.15802001953 
2018/05/21 14:11:01.839123 , -0.9462890625 , -1.083984375 , 4.23828125 , 15.4437118437 , -82.9162393162 , -235.554090354 , -4.67681884766 , 2.50244140625 , -4.15802001953 
2018/05/21 14:11:02.131733 , -0.9462890625 , -1.083984375 , 4.23828125 , 15.4437118437 , -82.9162393162 , -235.554090354 , -4.67681884766 , 2.50244140625 , -4.15802001953 
2018/05/21 14:11:02.424249 , -0.9462890625 , -1.083984375 , 4.23828125 , 15.4437118437 , -82.9162393162 , -235.554090354 , -4.67681884766 , 2.50244140625 , -4.15802001953 
2018/05/21 14:11:02.716655 , -0.7294921875 , -1.259765625 , 4.4453125 , 15.4437118437 , -82.9162393162 , -235.554090354 , -4.63104248047 , 1.62506103516 , -2.3193359375 
2018/05/21 14:11:03.009211 , -0.7294921875 , -1.259765625 , 4.4453125 , 15.4437118437 , -82.9162393162 , -235.554090354 , -4.63104248047 , 1.62506103516 , -2.3193359375 
2018/05/21 14:11:03.301689 , -0.7294921875 , -1.259765625 , 4.4453125 , 15.4437118437 , -82.9162393162 , -235.554090354 , -4.63104248047 , 1.62506103516 , -2.3193359375 
2018/05/21 14:11:03.594205 , -0.7294921875 , -1.259765625 , 4.4453125 , 31.1873015873 , -129.547252747 , -278.586568987 , -5.31768798828 , 5.33294677734 , 2.57873535156 
2018/05/21 14:11:03.886673 , -0.8427734375 , -1.12109375 , 3.9970703125 , 31.1873015873 , -129.547252747 , -278.586568987 , -5.31768798828 , 5.33294677734 , 2.57873535156 
2018/05/21 14:11:04.179387 , -0.8427734375 , -1.12109375 , 3.9970703125 , 31.1873015873 , -129.547252747 , -278.586568987 , -5.31768798828 , 5.33294677734 , 2.57873535156 
2018/05/21 14:11:04.471709 , -0.8427734375 , -1.12109375 , 3.9970703125 , 31.1873015873 , -129.547252747 , -278.586568987 , -5.31768798828 , 5.33294677734 , 2.57873535156 
2018/05/21 14:11:04.764278 , -0.83203125 , -1.2978515625 , 4.43359375 , 31.1873015873 , -129.547252747 , -278.586568987 , -3.44085693359 , 3.62396240234 , -1.51824951172 
2018/05/21 14:11:05.056942 , -0.83203125 , -1.2978515625 , 4.43359375 , 31.1873015873 , -129.547252747 , -278.586568987 , -3.44085693359 , 3.62396240234 , -1.51824951172 
2018/05/21 14:11:05.349229 , -0.83203125 , -1.2978515625 , 4.43359375 , 31.1873015873 , -129.547252747 , -278.586568987 , -3.44085693359 , 3.62396240234 , -1.51824951172 
2018/05/21 14:11:05.641730 , -0.83203125 , -1.2978515625 , 4.43359375 , 29.9877899878 , -128.647619048 , -273.638583639 , -4.73785400391 , 4.53186035156 , -1.06811523438 
2018/05/21 14:11:05.934302 , -0.826171875 , -1.25 , 4.4169921875 , 29.9877899878 , -128.647619048 , -273.638583639 , -4.73785400391 , 4.53186035156 , -1.06811523438 
2018/05/21 14:11:06.226936 , -0.826171875 , -1.25 , 4.4169921875 , 29.9877899878 , -128.647619048 , -273.638583639 , -4.73785400391 , 4.53186035156 , -1.06811523438 
2018/05/21 14:11:06.519286 , -0.826171875 , -1.25 , 4.4169921875 , 29.9877899878 , -128.647619048 , -273.638583639 , -2.92205810547 , 5.57708740234 , 1.89971923828 
2018/05/21 14:11:06.811802 , -0.8984375 , -1.1064453125 , 4.3251953125 , 35.3855921856 , -137.943833944 , -279.636141636 , -2.92205810547 , 5.57708740234 , 1.89971923828 
2018/05/21 14:11:07.104561 , -0.8984375 , -1.1064453125 , 4.3251953125 , 35.3855921856 , -137.943833944 , -279.636141636 , -2.92205810547 , 5.57708740234 , 1.89971923828 
2018/05/21 14:11:07.396791 , -0.8984375 , -1.1064453125 , 4.3251953125 , 35.3855921856 , -137.943833944 , -279.636141636 , -2.92205810547 , 5.57708740234 , 1.89971923828 
2018/05/21 14:11:07.689292 , -0.7587890625 , -1.09765625 , 4.099609375 , 40.6334554335 , -135.844688645 , -292.530891331 , -3.98254394531 , 3.66973876953 , -1.61743164062 
2018/05/21 14:11:08.030773 , -0.7587890625 , -1.09765625 , 4.099609375 , 40.6334554335 , -135.844688645 , -292.530891331 , -3.98254394531 , 3.66973876953 , -1.61743164062 
2018/05/21 14:11:08.323100 , -0.7587890625 , -1.09765625 , 4.099609375 , 40.6334554335 , -135.844688645 , -292.530891331 , -3.98254394531 , 3.66973876953 , -1.61743164062 
2018/05/21 14:11:08.664331 , -0.7587890625 , -1.09765625 , 4.099609375 , 30.1377289377 , -133.295726496 , -277.237118437 , -4.73785400391 , 5.64575195312 , -0.0152587890625 
2018/05/21 14:11:08.956822 , -0.810546875 , -1.1630859375 , 4.1142578125 , 30.1377289377 , -133.295726496 , -277.237118437 , -4.73785400391 , 5.64575195312 , -0.0152587890625 
2018/05/21 14:11:09.249529 , -0.810546875 , -1.1630859375 , 4.1142578125 , 30.1377289377 , -133.295726496 , -277.237118437 , -4.73785400391 , 5.64575195312 , -0.0152587890625 
2018/05/21 14:11:09.541846 , -0.810546875 , -1.1630859375 , 4.1142578125 , 30.1377289377 , -133.295726496 , -277.237118437 , -3.96728515625 , 3.87573242188 , -1.03759765625 
2018/05/21 14:11:09.834380 , -0.876953125 , -1.3037109375 , 4.2548828125 , 41.2332112332 , -136.744322344 , -292.380952381 , -3.96728515625 , 3.87573242188 , -1.03759765625 
2018/05/21 14:11:10.126984 , -0.876953125 , -1.3037109375 , 4.2548828125 , 41.2332112332 , -136.744322344 , -292.380952381 , -3.96728515625 , 3.87573242188 , -1.03759765625 
2018/05/21 14:11:10.419425 , -0.876953125 , -1.3037109375 , 4.2548828125 , 41.2332112332 , -136.744322344 , -292.380952381 , -3.96728515625 , 3.87573242188 , -1.03759765625 
2018/05/21 14:11:10.711892 , -0.791015625 , -1.2548828125 , 4.193359375 , 41.2332112332 , -136.744322344 , -292.380952381 , -4.53186035156 , 2.21252441406 , 0.518798828125 
2018/05/21 14:11:11.004444 , -0.791015625 , -1.2548828125 , 4.193359375 , 41.2332112332 , -136.744322344 , -292.380952381 , -4.53186035156 , 2.21252441406 , 0.518798828125 
2018/05/21 14:11:11.296940 , -0.791015625 , -1.2548828125 , 4.193359375 , 41.2332112332 , -136.744322344 , -292.380952381 , -4.53186035156 , 2.21252441406 , 0.518798828125 
2018/05/21 14:11:11.589385 , -0.791015625 , -1.2548828125 , 4.193359375 , 41.2332112332 , -136.744322344 , -292.380952381 , -4.00543212891 , 6.50024414062 , -2.08282470703 
2018/05/21 14:11:11.881886 , -0.7490234375 , -1.23828125 , 4.39453125 , 32.8366300366 , -128.647619048 , -280.085958486 , -4.00543212891 , 6.50024414062 , -2.08282470703 
2018/05/21 14:11:12.174518 , -0.7490234375 , -1.23828125 , 4.39453125 , 32.8366300366 , -128.647619048 , -280.085958486 , -4.00543212891 , 6.50024414062 , -2.08282470703 
2018/05/21 14:11:12.466907 , -0.7490234375 , -1.23828125 , 4.39453125 , 32.8366300366 , -128.647619048 , -280.085958486 , -4.00543212891 , 6.50024414062 , -2.08282470703 
2018/05/21 14:11:12.759594 , -0.798828125 , -1.19140625 , 4.3017578125 , 32.3868131868 , -134.945054945 , -303.626373626 , -4.47082519531 , 4.72259521484 , -4.17327880859 
2018/05/21 14:11:13.052106 , -0.798828125 , -1.19140625 , 4.3017578125 , 32.3868131868 , -134.945054945 , -303.626373626 , -4.47082519531 , 4.72259521484 , -4.17327880859 
2018/05/21 14:11:13.344498 , -0.798828125 , -1.19140625 , 4.3017578125 , 32.3868131868 , -134.945054945 , -303.626373626 , -4.47082519531 , 4.72259521484 , -4.17327880859 
2018/05/21 14:11:13.636937 , -0.798828125 , -1.19140625 , 4.3017578125 , 17.093040293 , -140.042979243 , -327.316727717 , -5.43212890625 , 6.18743896484 , 0.06103515625 
2018/05/21 14:11:13.929401 , -0.81640625 , -1.1201171875 , 4.4462890625 , 17.093040293 , -140.042979243 , -327.316727717 , -5.43212890625 , 6.18743896484 , 0.06103515625 
2018/05/21 14:11:14.222161 , -0.81640625 , -1.1201171875 , 4.4462890625 , 17.093040293 , -140.042979243 , -327.316727717 , -5.43212890625 , 6.18743896484 , 0.06103515625 
2018/05/21 14:11:14.514522 , -0.81640625 , -1.1201171875 , 4.4462890625 , 17.093040293 , -140.042979243 , -327.316727717 , -4.98962402344 , 6.55364990234 , -1.38092041016 
2018/05/21 14:11:14.807011 , -0.7890625 , -1.28515625 , 4.3056640625 , 39.284004884 , -136.894261294 , -292.231013431 , -4.98962402344 , 6.55364990234 , -1.38092041016 
2018/05/21 14:11:15.099737 , -0.7890625 , -1.28515625 , 4.3056640625 , 39.284004884 , -136.894261294 , -292.231013431 , -4.98962402344 , 6.55364990234 , -1.38092041016 
2018/05/21 14:11:15.392125 , -0.7890625 , -1.28515625 , 4.3056640625 , 39.284004884 , -136.894261294 , -292.231013431 , -4.98962402344 , 6.55364990234 , -1.38092041016 
2018/05/21 14:11:15.684453 , -0.7890625 , -1.28515625 , 4.3056640625 , 34.7858363858 , -139.293284493 , -301.377289377 , -5.18035888672 , 3.65447998047 , -4.21142578125 
2018/05/21 14:11:15.977016 , -0.6533203125 , -1.2080078125 , 4.3974609375 , 34.7858363858 , -139.293284493 , -301.377289377 , -5.18035888672 , 3.65447998047 , -4.21142578125 
2018/05/21 14:11:16.269623 , -0.6533203125 , -1.2080078125 , 4.3974609375 , 34.7858363858 , -139.293284493 , -301.377289377 , -5.18035888672 , 3.65447998047 , -4.21142578125 
2018/05/21 14:11:16.562009 , -0.6533203125 , -1.2080078125 , 4.3974609375 , 34.7858363858 , -139.293284493 , -301.377289377 , -3.98254394531 , 4.23431396484 , 0.686645507812 
2018/05/21 14:11:16.854496 , -0.7001953125 , -1.0625 , 4.4443359375 , 44.6818070818 , -141.692307692 , -291.031501832 , -3.98254394531 , 4.23431396484 , 0.686645507812 
2018/05/21 14:11:17.147175 , -0.7001953125 , -1.0625 , 4.4443359375 , 44.6818070818 , -141.692307692 , -291.031501832 , -3.98254394531 , 4.23431396484 , 0.686645507812 
2018/05/21 14:11:17.439518 , -0.7001953125 , -1.0625 , 4.4443359375 , 44.6818070818 , -141.692307692 , -291.031501832 , -3.98254394531 , 4.23431396484 , 0.686645507812 
2018/05/21 14:11:17.732015 , -0.8720703125 , -1.0517578125 , 4.236328125 , 52.3286935287 , -145.740659341 , -282.934798535 , -3.88336181641 , 5.47790527344 , 0.0152587890625 
2018/05/21 14:11:18.024622 , -0.8720703125 , -1.0517578125 , 4.236328125 , 52.3286935287 , -145.740659341 , -282.934798535 , -3.88336181641 , 5.47790527344 , 0.0152587890625 
2018/05/21 14:11:18.317044 , -0.8720703125 , -1.0517578125 , 4.236328125 , 52.3286935287 , -145.740659341 , -282.934798535 , -3.88336181641 , 5.47790527344 , 0.0152587890625 
2018/05/21 14:11:18.609505 , -0.8720703125 , -1.0517578125 , 4.236328125 , 43.7821733822 , -142.591941392 , -285.033943834 , -2.75421142578 , 2.62451171875 , -2.38800048828 
2018/05/21 14:11:18.902002 , -0.6923828125 , -1.1640625 , 4.24609375 , 43.7821733822 , -142.591941392 , -285.033943834 , -2.75421142578 , 2.62451171875 , -2.38800048828 
2018/05/21 14:11:19.194684 , -0.6923828125 , -1.1640625 , 4.24609375 , 43.7821733822 , -142.591941392 , -285.033943834 , -2.75421142578 , 2.62451171875 , -2.38800048828 
2018/05/21 14:11:19.487060 , -0.6923828125 , -1.1640625 , 4.24609375 , 43.7821733822 , -142.591941392 , -285.033943834 , -2.75421142578 , 2.62451171875 , -2.38800048828 
2018/05/21 14:11:19.779525 , -0.7177734375 , -1.0673828125 , 4.38671875 , 51.8788766789 , -143.191697192 , -280.685714286 , -3.82995605469 , 4.24194335938 , -1.69372558594 
2018/05/21 14:11:20.072365 , -0.7177734375 , -1.0673828125 , 4.38671875 , 51.8788766789 , -143.191697192 , -280.685714286 , -3.82995605469 , 4.24194335938 , -1.69372558594 
2018/05/21 14:11:20.364631 , -0.7177734375 , -1.0673828125 , 4.38671875 , 51.8788766789 , -143.191697192 , -280.685714286 , -3.82995605469 , 4.24194335938 , -1.69372558594 
2018/05/21 14:11:20.657065 , -0.7177734375 , -1.0673828125 , 4.38671875 , 51.4290598291 , -144.091330891 , -280.385836386 , -3.95965576172 , 2.23541259766 , -2.51770019531 
2018/05/21 14:11:20.949542 , -0.6845703125 , -1.1357421875 , 4.478515625 , 51.4290598291 , -144.091330891 , -280.385836386 , -3.95965576172 , 2.23541259766 , -2.51770019531 
2018/05/21 14:11:21.242239 , -0.6845703125 , -1.1357421875 , 4.478515625 , 51.4290598291 , -144.091330891 , -280.385836386 , -3.95965576172 , 2.23541259766 , -2.51770019531 
2018/05/21 14:11:21.534562 , -0.6845703125 , -1.1357421875 , 4.478515625 , 51.4290598291 , -144.091330891 , -280.385836386 , -4.71496582031 , 3.43322753906 , -0.709533691406 
2018/05/21 14:11:21.827123 , -0.64453125 , -1.150390625 , 4.3564453125 , 48.7301587302 , -140.342857143 , -285.033943834 , -4.71496582031 , 3.43322753906 , -0.709533691406 
2018/05/21 14:11:22.119833 , -0.64453125 , -1.150390625 , 4.3564453125 , 48.7301587302 , -140.342857143 , -285.033943834 , -4.71496582031 , 3.43322753906 , -0.709533691406 
2018/05/21 14:11:22.460901 , -0.64453125 , -1.150390625 , 4.3564453125 , 48.7301587302 , -140.342857143 , -285.033943834 , -4.71496582031 , 3.43322753906 , -0.709533691406 
2018/05/21 14:11:22.753342 , -0.7275390625 , -1.158203125 , 4.4345703125 , 53.3782661783 , -140.342857143 , -276.487423687 , -4.2724609375 , 6.27899169922 , -0.831604003906 
2018/05/21 14:11:23.046047 , -0.7275390625 , -1.158203125 , 4.4345703125 , 53.3782661783 , -140.342857143 , -276.487423687 , -4.2724609375 , 6.27899169922 , -0.831604003906 
2018/05/21 14:11:23.338546 , -0.7275390625 , -1.158203125 , 4.4345703125 , 53.3782661783 , -140.342857143 , -276.487423687 , -4.2724609375 , 6.27899169922 , -0.831604003906 
2018/05/21 14:11:23.630825 , -0.7275390625 , -1.158203125 , 4.4345703125 , 52.6285714286 , -140.042979243 , -274.088400488 , -0.907897949219 , 4.36401367188 , -0.335693359375 
2018/05/21 14:11:23.923391 , -0.7314453125 , -1.291015625 , 4.3955078125 , 52.6285714286 , -140.042979243 , -274.088400488 , -0.907897949219 , 4.36401367188 , -0.335693359375 
2018/05/21 14:11:24.215943 , -0.7314453125 , -1.291015625 , 4.3955078125 , 52.6285714286 , -140.042979243 , -274.088400488 , -0.907897949219 , 4.36401367188 , -0.335693359375 
2018/05/21 14:11:24.508402 , -0.7314453125 , -1.291015625 , 4.3955078125 , 52.6285714286 , -140.042979243 , -274.088400488 , -5.53131103516 , 4.25720214844 , 0.762939453125 
2018/05/21 14:11:24.800893 , -0.943359375 , -1.1630859375 , 4.3984375 , 54.5777777778 , -146.94017094 , -279.786080586 , -5.53131103516 , 4.25720214844 , 0.762939453125 
2018/05/21 14:11:25.093616 , -0.943359375 , -1.1630859375 , 4.3984375 , 54.5777777778 , -146.94017094 , -279.786080586 , -5.53131103516 , 4.25720214844 , 0.762939453125 
2018/05/21 14:11:25.386132 , -0.943359375 , -1.1630859375 , 4.3984375 , 54.5777777778 , -146.94017094 , -279.786080586 , -5.53131103516 , 4.25720214844 , 0.762939453125 
2018/05/21 14:11:25.678404 , -0.943359375 , -1.1630859375 , 4.3984375 , 46.780952381 , -147.24004884 , -291.331379731 , -2.52532958984 , 5.35583496094 , -0.328063964844 
2018/05/21 14:11:25.970888 , -0.72265625 , -1.0751953125 , 4.1484375 , 46.780952381 , -147.24004884 , -291.331379731 , -2.52532958984 , 5.35583496094 , -0.328063964844 
2018/05/21 14:11:26.263433 , -0.72265625 , -1.0751953125 , 4.1484375 , 46.780952381 , -147.24004884 , -291.331379731 , -2.52532958984 , 5.35583496094 , -0.328063964844 
2018/05/21 14:11:26.555881 , -0.72265625 , -1.0751953125 , 4.1484375 , 46.780952381 , -147.24004884 , -291.331379731 , -4.48608398438 , 4.64630126953 , -0.129699707031 
2018/05/21 14:11:26.848401 , -0.7890625 , -1.1259765625 , 4.3466796875 , 48.8800976801 , -146.94017094 , -291.031501832 , -4.48608398438 , 4.64630126953 , -0.129699707031 
2018/05/21 14:11:27.140994 , -0.7890625 , -1.1259765625 , 4.3466796875 , 48.8800976801 , -146.94017094 , -291.031501832 , -4.48608398438 , 4.64630126953 , -0.129699707031 
2018/05/21 14:11:27.433566 , -0.7890625 , -1.1259765625 , 4.3466796875 , 48.8800976801 , -146.94017094 , -291.031501832 , -4.48608398438 , 4.64630126953 , -0.129699707031 
2018/05/21 14:11:27.725898 , -0.9365234375 , -1.1962890625 , 4.4443359375 , 49.9296703297 , -150.088888889 , -291.331379731 , -6.79779052734 , 3.86047363281 , -1.19018554688 
2018/05/21 14:11:28.018525 , -0.9365234375 , -1.1962890625 , 4.4443359375 , 49.9296703297 , -150.088888889 , -291.331379731 , -6.79779052734 , 3.86047363281 , -1.19018554688 
2018/05/21 14:11:28.310976 , -0.9365234375 , -1.1962890625 , 4.4443359375 , 49.9296703297 , -150.088888889 , -291.331379731 , -6.79779052734 , 3.86047363281 , -1.19018554688 
2018/05/21 14:11:28.603527 , -0.9365234375 , -1.1962890625 , 4.4443359375 , 40.6334554335 , -154.137240537 , -309.324053724 , -3.09753417969 , 6.91986083984 , -0.389099121094 
2018/05/21 14:11:28.896240 , -0.7109375 , -1.154296875 , 4.4013671875 , 40.6334554335 , -154.137240537 , -309.324053724 , -3.09753417969 , 6.91986083984 , -0.389099121094 
2018/05/21 14:11:29.188530 , -0.7109375 , -1.154296875 , 4.4013671875 , 40.6334554335 , -154.137240537 , -309.324053724 , -3.09753417969 , 6.91986083984 , -0.389099121094 
2018/05/21 14:11:29.481182 , -0.7109375 , -1.154296875 , 4.4013671875 , 40.6334554335 , -154.137240537 , -309.324053724 , -3.09753417969 , 6.91986083984 , -0.389099121094 
2018/05/21 14:11:29.773509 , -0.765625 , -1.04296875 , 4.517578125 , 55.3274725275 , -139.893040293 , -271.989255189 , -6.62994384766 , 4.48608398438 , -2.35748291016 
2018/05/21 14:11:30.066271 , -0.765625 , -1.04296875 , 4.517578125 , 55.3274725275 , -139.893040293 , -271.989255189 , -6.62994384766 , 4.48608398438 , -2.35748291016 
2018/05/21 14:11:30.358508 , -0.765625 , -1.04296875 , 4.517578125 , 55.3274725275 , -139.893040293 , -271.989255189 , -6.62994384766 , 4.48608398438 , -2.35748291016 
2018/05/21 14:11:30.650985 , -0.765625 , -1.04296875 , 4.517578125 , 46.0312576313 , -141.842246642 , -284.734065934 , -2.92205810547 , 4.41741943359 , -0.282287597656 
2018/05/21 14:11:30.943478 , -0.76953125 , -1.1728515625 , 4.2568359375 , 46.0312576313 , -141.842246642 , -284.734065934 , -2.92205810547 , 4.41741943359 , -0.282287597656 
2018/05/21 14:11:31.236272 , -0.76953125 , -1.1728515625 , 4.2568359375 , 46.0312576313 , -141.842246642 , -284.734065934 , -2.92205810547 , 4.41741943359 , -0.282287597656 
2018/05/21 14:11:31.528471 , -0.76953125 , -1.1728515625 , 4.2568359375 , 46.0312576313 , -141.842246642 , -284.734065934 , -3.80706787109 , 4.57763671875 , -1.86920166016 
2018/05/21 14:11:31.820960 , -0.728515625 , -1.109375 , 4.40234375 , 51.1291819292 , -144.091330891 , -280.835653236 , -3.80706787109 , 4.57763671875 , -1.86920166016 
2018/05/21 14:11:32.113686 , -0.728515625 , -1.109375 , 4.40234375 , 51.1291819292 , -144.091330891 , -280.835653236 , -3.80706787109 , 4.57763671875 , -1.86920166016 
2018/05/21 14:11:32.406150 , -0.728515625 , -1.109375 , 4.40234375 , 51.1291819292 , -144.091330891 , -280.835653236 , -3.80706787109 , 4.57763671875 , -1.86920166016 
2018/05/21 14:11:32.698466 , -0.646484375 , -0.9931640625 , 4.2861328125 , 48.1304029304 , -139.293284493 , -277.536996337 , -5.54656982422 , 3.76892089844 , -1.5869140625 
2018/05/21 14:11:32.990989 , -0.646484375 , -0.9931640625 , 4.2861328125 , 48.1304029304 , -139.293284493 , -277.536996337 , -5.54656982422 , 3.76892089844 , -1.5869140625 
2018/05/21 14:11:33.283661 , -0.646484375 , -0.9931640625 , 4.2861328125 , 48.1304029304 , -139.293284493 , -277.536996337 , -5.54656982422 , 3.76892089844 , -1.5869140625 
2018/05/21 14:11:33.575994 , -0.646484375 , -0.9931640625 , 4.2861328125 , 48.1304029304 , -139.293284493 , -277.536996337 , -5.45501708984 , 4.98962402344 , -0.106811523438 
2018/05/21 14:11:33.868489 , -0.794921875 , -1.0830078125 , 4.494140625 , 64.4737484737 , -145.890598291 , -267.191208791 , -5.45501708984 , 4.98962402344 , -0.106811523438 
2018/05/21 14:11:34.161098 , -0.794921875 , -1.0830078125 , 4.494140625 , 64.4737484737 , -145.890598291 , -267.191208791 , -5.45501708984 , 4.98962402344 , -0.106811523438 
2018/05/21 14:11:34.453526 , -0.794921875 , -1.0830078125 , 4.494140625 , 64.4737484737 , -145.890598291 , -267.191208791 , -5.45501708984 , 4.98962402344 , -0.106811523438 
2018/05/21 14:11:34.746000 , -0.7216796875 , -1.033203125 , 4.4609375 , 61.9247863248 , -146.64029304 , -268.540659341 , -6.61468505859 , 4.46319580078 , -1.28936767578 
2018/05/21 14:11:35.038716 , -0.7216796875 , -1.033203125 , 4.4609375 , 61.9247863248 , -146.64029304 , -268.540659341 , -6.61468505859 , 4.46319580078 , -1.28936767578 
2018/05/21 14:11:35.331042 , -0.7216796875 , -1.033203125 , 4.4609375 , 61.9247863248 , -146.64029304 , -268.540659341 , -6.61468505859 , 4.46319580078 , -1.28936767578 
2018/05/21 14:11:35.623510 , -0.7216796875 , -1.033203125 , 4.4609375 , 61.9247863248 , -146.64029304 , -268.540659341 , -4.45556640625 , 4.66918945312 , -0.869750976562 
2018/05/21 14:11:35.916044 , -0.712890625 , -1.1513671875 , 4.5048828125 , 61.9247863248 , -146.64029304 , -268.540659341 , -4.45556640625 , 4.66918945312 , -0.869750976562 
2018/05/21 14:11:36.208797 , -0.712890625 , -1.1513671875 , 4.5048828125 , 61.9247863248 , -146.64029304 , -268.540659341 , -4.45556640625 , 4.66918945312 , -0.869750976562 
2018/05/21 14:11:36.501049 , -0.712890625 , -1.1513671875 , 4.5048828125 , 61.9247863248 , -146.64029304 , -268.540659341 , -3.80706787109 , 3.06701660156 , -4.150390625 
2018/05/21 14:11:36.793515 , -0.6650390625 , -1.140625 , 4.326171875 , 37.6346764347 , -127.897924298 , -260.294017094 , -3.80706787109 , 3.06701660156 , -4.150390625 
2018/05/21 14:11:37.086205 , -0.6650390625 , -1.140625 , 4.326171875 , 37.6346764347 , -127.897924298 , -260.294017094 , -3.80706787109 , 3.06701660156 , -4.150390625 
2018/05/21 14:11:37.378543 , -0.6650390625 , -1.140625 , 4.326171875 , 37.6346764347 , -127.897924298 , -260.294017094 , -3.80706787109 , 3.06701660156 , -4.150390625 
2018/05/21 14:11:37.671044 , -0.6650390625 , -1.140625 , 4.326171875 , 37.6346764347 , -127.897924298 , -260.294017094 , -3.90625 , 3.16619873047 , 0.572204589844 
2018/05/21 14:11:38.012470 , -0.66796875 , -1.1318359375 , 4.32421875 , 37.6346764347 , -127.897924298 , -260.294017094 , -3.90625 , 3.16619873047 , 0.572204589844 
2018/05/21 14:11:38.304870 , -0.66796875 , -1.1318359375 , 4.32421875 , 37.6346764347 , -127.897924298 , -260.294017094 , -3.90625 , 3.16619873047 , 0.572204589844 
2018/05/21 14:11:38.597369 , -0.66796875 , -1.1318359375 , 4.32421875 , 45.1316239316 , -134.645177045 , -255.196092796 , -6.38580322266 , 1.77764892578 , -1.15966796875 
2018/05/21 14:11:38.938538 , -0.6474609375 , -1.0830078125 , 4.42578125 , 45.1316239316 , -134.645177045 , -255.196092796 , -6.38580322266 , 1.77764892578 , -1.15966796875 
2018/05/21 14:11:39.231241 , -0.6474609375 , -1.0830078125 , 4.42578125 , 45.1316239316 , -134.645177045 , -255.196092796 , -6.38580322266 , 1.77764892578 , -1.15966796875 
2018/05/21 14:11:39.523711 , -0.6474609375 , -1.0830078125 , 4.42578125 , 45.1316239316 , -134.645177045 , -255.196092796 , -4.82177734375 , 2.94494628906 , -4.74548339844 
2018/05/21 14:11:39.816092 , -0.732421875 , -1.130859375 , 4.427734375 , 45.1316239316 , -134.645177045 , -255.196092796 , -4.82177734375 , 2.94494628906 , -4.74548339844 
2018/05/21 14:11:40.108824 , -0.732421875 , -1.130859375 , 4.427734375 , 45.1316239316 , -134.645177045 , -255.196092796 , -4.82177734375 , 2.94494628906 , -4.74548339844 
2018/05/21 14:11:40.401176 , -0.732421875 , -1.130859375 , 4.427734375 , 45.1316239316 , -134.645177045 , -255.196092796 , -4.82177734375 , 2.94494628906 , -4.74548339844 
2018/05/21 14:11:40.693656 , -0.720703125 , -1.1083984375 , 4.3515625 , 38.6842490842 , -139.593162393 , -271.23956044 , -4.01306152344 , 4.52423095703 , -0.373840332031 
2018/05/21 14:11:40.986317 , -0.720703125 , -1.1083984375 , 4.3515625 , 38.6842490842 , -139.593162393 , -271.23956044 , -4.01306152344 , 4.52423095703 , -0.373840332031 
2018/05/21 14:11:41.278938 , -0.720703125 , -1.1083984375 , 4.3515625 , 38.6842490842 , -139.593162393 , -271.23956044 , -4.01306152344 , 4.52423095703 , -0.373840332031 
2018/05/21 14:11:41.571583 , -0.720703125 , -1.1083984375 , 4.3515625 , 38.6842490842 , -139.593162393 , -271.23956044 , -4.34875488281 , 3.25775146484 , -2.16674804688 
2018/05/21 14:11:41.864341 , -0.626953125 , -1.142578125 , 4.4794921875 , 38.6842490842 , -139.593162393 , -271.23956044 , -4.34875488281 , 3.25775146484 , -2.16674804688 
2018/05/21 14:11:42.157103 , -0.626953125 , -1.142578125 , 4.4794921875 , 38.6842490842 , -139.593162393 , -271.23956044 , -4.34875488281 , 3.25775146484 , -2.16674804688 
2018/05/21 14:11:42.449755 , -0.626953125 , -1.142578125 , 4.4794921875 , 38.6842490842 , -139.593162393 , -271.23956044 , -4.34875488281 , 3.25775146484 , -2.16674804688 
2018/05/21 14:11:42.742426 , -0.7900390625 , -1.1611328125 , 4.42578125 , 47.0808302808 , -135.844688645 , -257.745054945 , -5.69152832031 , 4.72259521484 , -0.42724609375 
2018/05/21 14:11:43.035396 , -0.7900390625 , -1.1611328125 , 4.42578125 , 47.0808302808 , -135.844688645 , -257.745054945 , -5.69152832031 , 4.72259521484 , -0.42724609375 
2018/05/21 14:11:43.327859 , -0.7900390625 , -1.1611328125 , 4.42578125 , 47.0808302808 , -135.844688645 , -257.745054945 , -5.69152832031 , 4.72259521484 , -0.42724609375 
2018/05/21 14:11:43.620569 , -0.7900390625 , -1.1611328125 , 4.42578125 , 47.0808302808 , -135.844688645 , -257.745054945 , -3.86047363281 , 3.57055664062 , -2.67028808594 
2018/05/21 14:11:43.913264 , -0.6796875 , -1.1572265625 , 4.40234375 , 47.0808302808 , -135.844688645 , -257.745054945 , -3.86047363281 , 3.57055664062 , -2.67028808594 
2018/05/21 14:11:44.206183 , -0.6796875 , -1.1572265625 , 4.40234375 , 47.0808302808 , -135.844688645 , -257.745054945 , -3.86047363281 , 3.57055664062 , -2.67028808594 
2018/05/21 14:11:44.498732 , -0.6796875 , -1.1572265625 , 4.40234375 , 47.0808302808 , -135.844688645 , -257.745054945 , -3.66973876953 , 2.76184082031 , -3.82995605469 
2018/05/21 14:11:44.791519 , -0.6982421875 , -1.2509765625 , 4.5146484375 , 40.1836385836 , -134.945054945 , -265.391941392 , -3.66973876953 , 2.76184082031 , -3.82995605469 
2018/05/21 14:11:45.084301 , -0.6982421875 , -1.2509765625 , 4.5146484375 , 40.1836385836 , -134.945054945 , -265.391941392 , -3.66973876953 , 2.76184082031 , -3.82995605469 
2018/05/21 14:11:45.376786 , -0.6982421875 , -1.2509765625 , 4.5146484375 , 40.1836385836 , -134.945054945 , -265.391941392 , -3.66973876953 , 2.76184082031 , -3.82995605469 
2018/05/21 14:11:45.669669 , -0.6982421875 , -1.2509765625 , 4.5146484375 , 39.8837606838 , -142.292063492 , -275.737728938 , -2.01416015625 , 3.60107421875 , -0.946044921875 
2018/05/21 14:11:45.962232 , -0.783203125 , -1.2265625 , 4.279296875 , 39.8837606838 , -142.292063492 , -275.737728938 , -2.01416015625 , 3.60107421875 , -0.946044921875 
2018/05/21 14:11:46.255015 , -0.783203125 , -1.2265625 , 4.279296875 , 39.8837606838 , -142.292063492 , -275.737728938 , -2.01416015625 , 3.60107421875 , -0.946044921875 
2018/05/21 14:11:46.547564 , -0.783203125 , -1.2265625 , 4.279296875 , 39.8837606838 , -142.292063492 , -275.737728938 , -2.93731689453 , 2.34985351562 , -3.11279296875 
2018/05/21 14:11:46.840238 , -0.703125 , -1.1767578125 , 4.2939453125 , 47.2307692308 , -140.642735043 , -279.036385836 , -2.93731689453 , 2.34985351562 , -3.11279296875 
2018/05/21 14:11:47.133084 , -0.703125 , -1.1767578125 , 4.2939453125 , 47.2307692308 , -140.642735043 , -279.036385836 , -2.93731689453 , 2.34985351562 , -3.11279296875 
2018/05/21 14:11:47.425641 , -0.703125 , -1.1767578125 , 4.2939453125 , 47.2307692308 , -140.642735043 , -279.036385836 , -2.93731689453 , 2.34985351562 , -3.11279296875 
2018/05/21 14:11:47.718299 , -0.7548828125 , -1.2626953125 , 4.431640625 , 41.3831501832 , -140.342857143 , -267.641025641 , -3.59344482422 , 5.37872314453 , 0.030517578125 
2018/05/21 14:11:48.010939 , -0.7548828125 , -1.2626953125 , 4.431640625 , 41.3831501832 , -140.342857143 , -267.641025641 , -3.59344482422 , 5.37872314453 , 0.030517578125 
2018/05/21 14:11:48.303817 , -0.7548828125 , -1.2626953125 , 4.431640625 , 41.3831501832 , -140.342857143 , -267.641025641 , -3.59344482422 , 5.37872314453 , 0.030517578125 
2018/05/21 14:11:48.596347 , -0.7548828125 , -1.2626953125 , 4.431640625 , 47.2307692308 , -143.791452991 , -281.135531136 , -5.31005859375 , 5.39398193359 , -2.8076171875 
2018/05/21 14:11:48.889009 , -0.6796875 , -1.1572265625 , 4.4287109375 , 47.2307692308 , -143.791452991 , -281.135531136 , -5.31005859375 , 5.39398193359 , -2.8076171875 
2018/05/21 14:11:49.181693 , -0.6796875 , -1.1572265625 , 4.4287109375 , 47.2307692308 , -143.791452991 , -281.135531136 , -5.31005859375 , 5.39398193359 , -2.8076171875 
2018/05/21 14:11:49.474393 , -0.6796875 , -1.1572265625 , 4.4287109375 , 47.2307692308 , -143.791452991 , -281.135531136 , -5.31005859375 , 5.39398193359 , -2.8076171875 
2018/05/21 14:11:49.767027 , -0.7236328125 , -1.1904296875 , 4.3310546875 , 40.3335775336 , -140.342857143 , -268.390720391 , -6.63757324219 , 4.40979003906 , -1.54876708984 
2018/05/21 14:11:50.059977 , -0.7236328125 , -1.1904296875 , 4.3310546875 , 40.3335775336 , -140.342857143 , -268.390720391 , -6.63757324219 , 4.40979003906 , -1.54876708984 
2018/05/21 14:11:50.352421 , -0.7236328125 , -1.1904296875 , 4.3310546875 , 40.3335775336 , -140.342857143 , -268.390720391 , -6.63757324219 , 4.40979003906 , -1.54876708984 
2018/05/21 14:11:50.645374 , -0.7236328125 , -1.1904296875 , 4.3310546875 , 42.7326007326 , -139.293284493 , -283.384615385 , -3.92150878906 , 3.37219238281 , 0.190734863281 
2018/05/21 14:11:50.937745 , -0.775390625 , -1.0517578125 , 4.3251953125 , 42.7326007326 , -139.293284493 , -283.384615385 , -3.92150878906 , 3.37219238281 , 0.190734863281 
2018/05/21 14:11:51.230569 , -0.775390625 , -1.0517578125 , 4.3251953125 , 42.7326007326 , -139.293284493 , -283.384615385 , -3.92150878906 , 3.37219238281 , 0.190734863281 
2018/05/21 14:11:51.523029 , -0.775390625 , -1.0517578125 , 4.3251953125 , 42.7326007326 , -139.293284493 , -283.384615385 , -3.58581542969 , 3.41796875 , -0.534057617188 
2018/05/21 14:11:51.815729 , -0.6904296875 , -1.10546875 , 4.365234375 , 42.7326007326 , -139.293284493 , -283.384615385 , -3.58581542969 , 3.41796875 , -0.534057617188 
2018/05/21 14:11:52.108585 , -0.6904296875 , -1.10546875 , 4.365234375 , 42.7326007326 , -139.293284493 , -283.384615385 , -3.58581542969 , 3.41796875 , -0.534057617188 
2018/05/21 14:11:52.401037 , -0.6904296875 , -1.10546875 , 4.365234375 , 42.7326007326 , -139.293284493 , -283.384615385 , -3.58581542969 , 3.41796875 , -0.534057617188 
2018/05/21 14:11:52.693703 , -0.6904296875 , -1.10546875 , 4.365234375 , 45.2815628816 , -131.196581197 , -262.243223443 , -4.92858886719 , 3.20434570312 , 0.213623046875 
2018/05/21 14:11:52.986359 , -0.564453125 , -1.205078125 , 4.30859375 , 45.2815628816 , -131.196581197 , -262.243223443 , -4.92858886719 , 3.20434570312 , 0.213623046875 
2018/05/21 14:11:53.279057 , -0.564453125 , -1.205078125 , 4.30859375 , 45.2815628816 , -131.196581197 , -262.243223443 , -4.92858886719 , 3.20434570312 , 0.213623046875 
2018/05/21 14:11:53.572028 , -0.564453125 , -1.205078125 , 4.30859375 , 45.2815628816 , -131.196581197 , -262.243223443 , -6.50024414062 , 5.38635253906 , -4.33349609375 
2018/05/21 14:11:53.864640 , -0.712890625 , -1.095703125 , 4.427734375 , 45.4315018315 , -145.590720391 , -286.983150183 , -6.50024414062 , 5.38635253906 , -4.33349609375 
2018/05/21 14:11:54.157181 , -0.712890625 , -1.095703125 , 4.427734375 , 45.4315018315 , -145.590720391 , -286.983150183 , -6.50024414062 , 5.38635253906 , -4.33349609375 
2018/05/21 14:11:54.449633 , -0.712890625 , -1.095703125 , 4.427734375 , 45.4315018315 , -145.590720391 , -286.983150183 , -6.50024414062 , 5.38635253906 , -4.33349609375 
2018/05/21 14:11:54.742257 , -0.658203125 , -1.216796875 , 4.359375 , 43.7821733822 , -143.941391941 , -286.383394383 , -3.73840332031 , 3.82995605469 , -2.93731689453 
2018/05/21 14:11:55.034990 , -0.658203125 , -1.216796875 , 4.359375 , 43.7821733822 , -143.941391941 , -286.383394383 , -3.73840332031 , 3.82995605469 , -2.93731689453 
2018/05/21 14:11:55.327587 , -0.658203125 , -1.216796875 , 4.359375 , 43.7821733822 , -143.941391941 , -286.383394383 , -3.73840332031 , 3.82995605469 , -2.93731689453 
2018/05/21 14:11:55.620256 , -0.658203125 , -1.216796875 , 4.359375 , 49.4798534799 , -144.241269841 , -281.585347985 , -4.24194335938 , 3.73077392578 , -2.81524658203 
2018/05/21 14:11:55.912972 , -0.6962890625 , -1.0888671875 , 4.556640625 , 49.4798534799 , -144.241269841 , -281.585347985 , -4.24194335938 , 3.73077392578 , -2.81524658203 
2018/05/21 14:11:56.205765 , -0.6962890625 , -1.0888671875 , 4.556640625 , 49.4798534799 , -144.241269841 , -281.585347985 , -4.24194335938 , 3.73077392578 , -2.81524658203 
2018/05/21 14:11:56.498353 , -0.6962890625 , -1.0888671875 , 4.556640625 , 49.4798534799 , -144.241269841 , -281.585347985 , -4.24194335938 , 3.73077392578 , -2.81524658203 
2018/05/21 14:11:56.790865 , -0.6748046875 , -1.1474609375 , 4.439453125 , 39.4339438339 , -152.637851038 , -301.977045177 , -4.84466552734 , 3.45611572266 , -2.197265625 
2018/05/21 14:11:57.083653 , -0.6748046875 , -1.1474609375 , 4.439453125 , 39.4339438339 , -152.637851038 , -301.977045177 , -4.84466552734 , 3.45611572266 , -2.197265625 
2018/05/21 14:11:57.376137 , -0.6748046875 , -1.1474609375 , 4.439453125 , 39.4339438339 , -152.637851038 , -301.977045177 , -4.84466552734 , 3.45611572266 , -2.197265625 
2018/05/21 14:11:57.668783 , -0.6748046875 , -1.1474609375 , 4.439453125 , 44.9816849817 , -146.79023199 , -285.783638584 , -7.85827636719 , 2.89916992188 , -2.70843505859 
2018/05/21 14:11:57.961459 , -0.6376953125 , -1.1513671875 , 4.47265625 , 44.9816849817 , -146.79023199 , -285.783638584 , -7.85827636719 , 2.89916992188 , -2.70843505859 
2018/05/21 14:11:58.254273 , -0.6376953125 , -1.1513671875 , 4.47265625 , 44.9816849817 , -146.79023199 , -285.783638584 , -7.85827636719 , 2.89916992188 , -2.70843505859 
2018/05/21 14:11:58.546683 , -0.6376953125 , -1.1513671875 , 4.47265625 , 44.9816849817 , -146.79023199 , -285.783638584 , -4.60052490234 , 2.48718261719 , -0.953674316406 
2018/05/21 14:11:58.839301 , -0.681640625 , -1.1533203125 , 4.5068359375 , 40.0336996337 , -149.639072039 , -296.579242979 , -4.60052490234 , 2.48718261719 , -0.953674316406 
2018/05/21 14:11:59.132096 , -0.681640625 , -1.1533203125 , 4.5068359375 , 40.0336996337 , -149.639072039 , -296.579242979 , -4.60052490234 , 2.48718261719 , -0.953674316406 
2018/05/21 14:11:59.424561 , -0.681640625 , -1.1533203125 , 4.5068359375 , 40.0336996337 , -149.639072039 , -296.579242979 , -4.60052490234 , 2.48718261719 , -0.953674316406 
2018/05/21 14:11:59.717165 , -0.6259765625 , -1.123046875 , 4.4638671875 , 46.631013431 , -146.040537241 , -282.934798535 , -4.81414794922 , 4.60052490234 , -1.220703125 
2018/05/21 14:12:00.009984 , -0.6259765625 , -1.123046875 , 4.4638671875 , 46.631013431 , -146.040537241 , -282.934798535 , -4.81414794922 , 4.60052490234 , -1.220703125 
2018/05/21 14:12:00.302850 , -0.6259765625 , -1.123046875 , 4.4638671875 , 46.631013431 , -146.040537241 , -282.934798535 , -4.81414794922 , 4.60052490234 , -1.220703125 
2018/05/21 14:12:00.595147 , -0.6259765625 , -1.123046875 , 4.4638671875 , 46.631013431 , -146.040537241 , -282.934798535 , -4.24957275391 , 4.7607421875 , -1.68609619141 
2018/05/21 14:12:00.887728 , -0.69140625 , -1.1494140625 , 4.4384765625 , 48.7301587302 , -143.191697192 , -279.186324786 , -4.24957275391 , 4.7607421875 , -1.68609619141 
2018/05/21 14:12:01.181056 , -0.69140625 , -1.1494140625 , 4.4384765625 , 48.7301587302 , -143.191697192 , -279.186324786 , -4.24957275391 , 4.7607421875 , -1.68609619141 
2018/05/21 14:12:01.472989 , -0.69140625 , -1.1494140625 , 4.4384765625 , 48.7301587302 , -143.191697192 , -279.186324786 , -4.24957275391 , 4.7607421875 , -1.68609619141 
2018/05/21 14:12:01.765783 , -0.7255859375 , -1.0830078125 , 4.5263671875 , 43.6322344322 , -141.992185592 , -284.134310134 , -6.82830810547 , 3.88336181641 , -1.77001953125 
2018/05/21 14:12:02.058170 , -0.7255859375 , -1.0830078125 , 4.5263671875 , 43.6322344322 , -141.992185592 , -284.134310134 , -6.82830810547 , 3.88336181641 , -1.77001953125 
2018/05/21 14:12:02.350626 , -0.7255859375 , -1.0830078125 , 4.5263671875 , 43.6322344322 , -141.992185592 , -284.134310134 , -6.82830810547 , 3.88336181641 , -1.77001953125 
2018/05/21 14:12:02.643517 , -0.7255859375 , -1.0830078125 , 4.5263671875 , 41.683028083 , -144.691086691 , -289.532112332 , -4.01306152344 , 3.41033935547 , -2.44140625 
2018/05/21 14:12:02.936143 , -0.7783203125 , -1.1884765625 , 4.3779296875 , 41.683028083 , -144.691086691 , -289.532112332 , -4.01306152344 , 3.41033935547 , -2.44140625 
2018/05/21 14:12:03.228962 , -0.7783203125 , -1.1884765625 , 4.3779296875 , 41.683028083 , -144.691086691 , -289.532112332 , -4.01306152344 , 3.41033935547 , -2.44140625 
2018/05/21 14:12:03.521381 , -0.7783203125 , -1.1884765625 , 4.3779296875 , 41.683028083 , -144.691086691 , -289.532112332 , -3.21960449219 , 1.81579589844 , -1.39617919922 
2018/05/21 14:12:03.814029 , -0.669921875 , -1.1416015625 , 4.5888671875 , -29.9877899878 , -122.05030525 , -339.611721612 , -3.21960449219 , 1.81579589844 , -1.39617919922 
2018/05/21 14:12:04.106795 , -0.669921875 , -1.1416015625 , 4.5888671875 , -29.9877899878 , -122.05030525 , -339.611721612 , -3.21960449219 , 1.81579589844 , -1.39617919922 
2018/05/21 14:12:04.399310 , -0.669921875 , -1.1416015625 , 4.5888671875 , -29.9877899878 , -122.05030525 , -339.611721612 , -3.21960449219 , 1.81579589844 , -1.39617919922 
2018/05/21 14:12:04.691895 , -0.669921875 , -1.1416015625 , 4.5888671875 , 31.1873015873 , -149.639072039 , -313.072527473 , -2.73132324219 , 2.76184082031 , -0.175476074219 
2018/05/21 14:12:04.984456 , -0.6494140625 , -1.1787109375 , 4.431640625 , 31.1873015873 , -149.639072039 , -313.072527473 , -2.73132324219 , 2.76184082031 , -0.175476074219 
2018/05/21 14:12:05.277247 , -0.6494140625 , -1.1787109375 , 4.431640625 , 31.1873015873 , -149.639072039 , -313.072527473 , -2.73132324219 , 2.76184082031 , -0.175476074219 
2018/05/21 14:12:05.569697 , -0.6494140625 , -1.1787109375 , 4.431640625 , 31.1873015873 , -149.639072039 , -313.072527473 , -2.46429443359 , 6.99615478516 , -1.87683105469 
2018/05/21 14:12:05.862299 , -0.68359375 , -1.2158203125 , 4.3408203125 , 30.1377289377 , -142.891819292 , -305.125763126 , -2.46429443359 , 6.99615478516 , -1.87683105469 
2018/05/21 14:12:06.154996 , -0.68359375 , -1.2158203125 , 4.3408203125 , 30.1377289377 , -142.891819292 , -305.125763126 , -2.46429443359 , 6.99615478516 , -1.87683105469 
2018/05/21 14:12:06.447588 , -0.68359375 , -1.2158203125 , 4.3408203125 , 30.1377289377 , -142.891819292 , -305.125763126 , -2.46429443359 , 6.99615478516 , -1.87683105469 
2018/05/21 14:12:06.740294 , -0.7197265625 , -1.2138671875 , 4.2705078125 , 31.3372405372 , -153.237606838 , -311.873015873 , -2.84576416016 , 2.23541259766 , -3.80706787109 
2018/05/21 14:12:07.032856 , -0.7197265625 , -1.2138671875 , 4.2705078125 , 31.3372405372 , -153.237606838 , -311.873015873 , -2.84576416016 , 2.23541259766 , -3.80706787109 
2018/05/21 14:12:07.325533 , -0.7197265625 , -1.2138671875 , 4.2705078125 , 31.3372405372 , -153.237606838 , -311.873015873 , -2.84576416016 , 2.23541259766 , -3.80706787109 
2018/05/21 14:12:07.618043 , -0.7197265625 , -1.2138671875 , 4.2705078125 , 18.4424908425 , -159.684981685 , -333.014407814 , -3.18145751953 , 3.84521484375 , -5.52368164062 
2018/05/21 14:12:07.910620 , -0.701171875 , -1.0693359375 , 4.427734375 , 18.4424908425 , -159.684981685 , -333.014407814 , -3.18145751953 , 3.84521484375 , -5.52368164062 
2018/05/21 14:12:08.203446 , -0.701171875 , -1.0693359375 , 4.427734375 , 18.4424908425 , -159.684981685 , -333.014407814 , -3.18145751953 , 3.84521484375 , -5.52368164062 
2018/05/21 14:12:08.495876 , -0.701171875 , -1.0693359375 , 4.427734375 , 18.4424908425 , -159.684981685 , -333.014407814 , -3.18145751953 , 3.84521484375 , -5.52368164062 
2018/05/21 14:12:08.788845 , -0.658203125 , -1.2353515625 , 4.3828125 , 17.093040293 , -154.437118437 , -328.966056166 , -4.10461425781 , 5.859375 , 0.434875488281 
2018/05/21 14:12:09.081255 , -0.658203125 , -1.2353515625 , 4.3828125 , 17.093040293 , -154.437118437 , -328.966056166 , -4.10461425781 , 5.859375 , 0.434875488281 
2018/05/21 14:12:09.373654 , -0.658203125 , -1.2353515625 , 4.3828125 , 17.093040293 , -154.437118437 , -328.966056166 , -4.10461425781 , 5.859375 , 0.434875488281 
2018/05/21 14:12:09.666254 , -0.658203125 , -1.2353515625 , 4.3828125 , -6.89719169719 , -153.987301587 , -349.657631258 , -4.31823730469 , 2.32696533203 , -1.27410888672 
2018/05/21 14:12:09.958870 , -0.6650390625 , -1.072265625 , 4.4150390625 , -6.89719169719 , -153.987301587 , -349.657631258 , -4.31823730469 , 2.32696533203 , -1.27410888672 
2018/05/21 14:12:10.251441 , -0.6650390625 , -1.072265625 , 4.4150390625 , -6.89719169719 , -153.987301587 , -349.657631258 , -4.31823730469 , 2.32696533203 , -1.27410888672 
2018/05/21 14:12:10.544152 , -0.6650390625 , -1.072265625 , 4.4150390625 , -6.89719169719 , -153.987301587 , -349.657631258 , -4.36401367188 , 1.75476074219 , 0.30517578125 
2018/05/21 14:12:10.836647 , -0.65625 , -1.1484375 , 4.400390625 , 7.34700854701 , -162.983638584 , -343.36019536 , -4.36401367188 , 1.75476074219 , 0.30517578125 
2018/05/21 14:12:11.129434 , -0.65625 , -1.1484375 , 4.400390625 , 7.34700854701 , -162.983638584 , -343.36019536 , -4.36401367188 , 1.75476074219 , 0.30517578125 
2018/05/21 14:12:11.421878 , -0.65625 , -1.1484375 , 4.400390625 , 7.34700854701 , -162.983638584 , -343.36019536 , -4.36401367188 , 1.75476074219 , 0.30517578125 
2018/05/21 14:12:11.714497 , -0.6650390625 , -1.1650390625 , 4.5498046875 , 14.3941391941 , -164.333089133 , -338.262271062 , -5.28717041016 , 3.10516357422 , -0.8544921875 
2018/05/21 14:12:12.007048 , -0.6650390625 , -1.1650390625 , 4.5498046875 , 14.3941391941 , -164.333089133 , -338.262271062 , -5.28717041016 , 3.10516357422 , -0.8544921875 
2018/05/21 14:12:12.299657 , -0.6650390625 , -1.1650390625 , 4.5498046875 , 14.3941391941 , -164.333089133 , -338.262271062 , -5.28717041016 , 3.10516357422 , -0.8544921875 
2018/05/21 14:12:12.592361 , -0.6650390625 , -1.1650390625 , 4.5498046875 , 14.3941391941 , -164.333089133 , -338.262271062 , -5.17272949219 , 5.46264648438 , -1.953125 
2018/05/21 14:12:12.884849 , -0.75 , -1.115234375 , 4.5947265625 , 7.64688644689 , -158.035653236 , -337.812454212 , -5.17272949219 , 5.46264648438 , -1.953125 
2018/05/21 14:12:13.177501 , -0.75 , -1.115234375 , 4.5947265625 , 7.64688644689 , -158.035653236 , -337.812454212 , -5.17272949219 , 5.46264648438 , -1.953125 
2018/05/21 14:12:13.470056 , -0.75 , -1.115234375 , 4.5947265625 , 7.64688644689 , -158.035653236 , -337.812454212 , -5.17272949219 , 5.46264648438 , -1.953125 
2018/05/21 14:12:13.762642 , -0.6630859375 , -1.126953125 , 4.37890625 , 2.6989010989 , -157.285958486 , -343.36019536 , -3.28063964844 , 5.31768798828 , -0.717163085938 
2018/05/21 14:12:14.055420 , -0.6630859375 , -1.126953125 , 4.37890625 , 2.6989010989 , -157.285958486 , -343.36019536 , -3.28063964844 , 5.31768798828 , -0.717163085938 
2018/05/21 14:12:14.347953 , -0.6630859375 , -1.126953125 , 4.37890625 , 2.6989010989 , -157.285958486 , -343.36019536 , -3.28063964844 , 5.31768798828 , -0.717163085938 
2018/05/21 14:12:14.640413 , -0.6630859375 , -1.126953125 , 4.37890625 , 10.7956043956 , -160.434676435 , -334.513797314 , -3.74603271484 , 5.93566894531 , -1.52587890625 
2018/05/21 14:12:14.933010 , -0.6591796875 , -1.0712890625 , 4.4326171875 , 10.7956043956 , -160.434676435 , -334.513797314 , -3.74603271484 , 5.93566894531 , -1.52587890625 
2018/05/21 14:12:15.225743 , -0.6591796875 , -1.0712890625 , 4.4326171875 , 10.7956043956 , -160.434676435 , -334.513797314 , -3.74603271484 , 5.93566894531 , -1.52587890625 
2018/05/21 14:12:15.518178 , -0.6591796875 , -1.0712890625 , 4.4326171875 , 10.7956043956 , -160.434676435 , -334.513797314 , -3.61633300781 , 2.99072265625 , -1.78527832031 
2018/05/21 14:12:15.810810 , -0.6806640625 , -1.13671875 , 4.560546875 , 20.9914529915 , -154.437118437 , -318.77020757 , -3.61633300781 , 2.99072265625 , -1.78527832031 
2018/05/21 14:12:16.103561 , -0.6806640625 , -1.13671875 , 4.560546875 , 20.9914529915 , -154.437118437 , -318.77020757 , -3.61633300781 , 2.99072265625 , -1.78527832031 
2018/05/21 14:12:16.396185 , -0.6806640625 , -1.13671875 , 4.560546875 , 20.9914529915 , -154.437118437 , -318.77020757 , -3.61633300781 , 2.99072265625 , -1.78527832031 
2018/05/21 14:12:16.688558 , -0.6806640625 , -1.13671875 , 4.560546875 , 23.6903540904 , -151.438339438 , -313.222466422 , -3.63922119141 , 4.0283203125 , -1.40380859375 
2018/05/21 14:12:16.981126 , -0.5771484375 , -1.1171875 , 4.466796875 , 23.6903540904 , -151.438339438 , -313.222466422 , -3.63922119141 , 4.0283203125 , -1.40380859375 
2018/05/21 14:12:17.273757 , -0.5771484375 , -1.1171875 , 4.466796875 , 23.6903540904 , -151.438339438 , -313.222466422 , -3.63922119141 , 4.0283203125 , -1.40380859375 
2018/05/21 14:12:17.566328 , -0.5771484375 , -1.1171875 , 4.466796875 , 23.6903540904 , -151.438339438 , -313.222466422 , -5.66101074219 , 3.39508056641 , 0.732421875 
2018/05/21 14:12:17.858959 , -0.6787109375 , -1.2099609375 , 4.6494140625 , 22.9406593407 , -150.388766789 , -314.122100122 , -5.66101074219 , 3.39508056641 , 0.732421875 
2018/05/21 14:12:18.151575 , -0.6787109375 , -1.2099609375 , 4.6494140625 , 22.9406593407 , -150.388766789 , -314.122100122 , -5.66101074219 , 3.39508056641 , 0.732421875 
2018/05/21 14:12:18.444346 , -0.6787109375 , -1.2099609375 , 4.6494140625 , 22.9406593407 , -150.388766789 , -314.122100122 , -5.66101074219 , 3.39508056641 , 0.732421875 
2018/05/21 14:12:18.736657 , -0.7060546875 , -1.1376953125 , 4.537109375 , 22.9406593407 , -150.388766789 , -314.122100122 , -5.06591796875 , 3.57818603516 , -0.289916992188 
2018/05/21 14:12:19.029267 , -0.7060546875 , -1.1376953125 , 4.537109375 , 22.9406593407 , -150.388766789 , -314.122100122 , -5.06591796875 , 3.57818603516 , -0.289916992188 
2018/05/21 14:12:19.321828 , -0.7060546875 , -1.1376953125 , 4.537109375 , 22.9406593407 , -150.388766789 , -314.122100122 , -5.06591796875 , 3.57818603516 , -0.289916992188 
2018/05/21 14:12:19.614492 , -0.7060546875 , -1.1376953125 , 4.537109375 , 23.6903540904 , -154.736996337 , -315.621489621 , -4.37164306641 , 4.93621826172 , -0.808715820312 
2018/05/21 14:12:19.907027 , -0.6923828125 , -1.0908203125 , 4.55078125 , 23.6903540904 , -154.736996337 , -315.621489621 , -4.37164306641 , 4.93621826172 , -0.808715820312 
2018/05/21 14:12:20.199621 , -0.6923828125 , -1.0908203125 , 4.55078125 , 23.6903540904 , -154.736996337 , -315.621489621 , -4.37164306641 , 4.93621826172 , -0.808715820312 
2018/05/21 14:12:20.492158 , -0.6923828125 , -1.0908203125 , 4.55078125 , 23.6903540904 , -154.736996337 , -315.621489621 , -4.37164306641 , 4.93621826172 , -0.808715820312 
2018/05/21 14:12:20.784721 , -0.6083984375 , -1.1064453125 , 4.30859375 , 23.6903540904 , -154.736996337 , -315.621489621 , -4.81414794922 , 1.59454345703 , -4.08172607422 
2018/05/21 14:12:21.077492 , -0.6083984375 , -1.1064453125 , 4.30859375 , 23.6903540904 , -154.736996337 , -315.621489621 , -4.81414794922 , 1.59454345703 , -4.08172607422 
2018/05/21 14:12:21.369999 , -0.6083984375 , -1.1064453125 , 4.30859375 , 23.6903540904 , -154.736996337 , -315.621489621 , -4.81414794922 , 1.59454345703 , -4.08172607422 
2018/05/21 14:12:21.662448 , -0.6083984375 , -1.1064453125 , 4.30859375 , 20.9914529915 , -150.688644689 , -314.721855922 , -4.68444824219 , 4.8828125 , 0.221252441406 
2018/05/21 14:12:21.955012 , -0.69140625 , -1.115234375 , 4.36328125 , 20.9914529915 , -150.688644689 , -314.721855922 , -4.68444824219 , 4.8828125 , 0.221252441406 
2018/05/21 14:12:22.247805 , -0.69140625 , -1.115234375 , 4.36328125 , 20.9914529915 , -150.688644689 , -314.721855922 , -4.68444824219 , 4.8828125 , 0.221252441406 
2018/05/21 14:12:22.540182 , -0.69140625 , -1.115234375 , 4.36328125 , 20.9914529915 , -150.688644689 , -314.721855922 , -3.90625 , 6.41632080078 , -1.83868408203 
2018/05/21 14:12:22.832760 , -0.58984375 , -1.166015625 , 4.3466796875 , 20.9914529915 , -150.688644689 , -314.721855922 , -3.90625 , 6.41632080078 , -1.83868408203 
2018/05/21 14:12:23.125622 , -0.58984375 , -1.166015625 , 4.3466796875 , 20.9914529915 , -150.688644689 , -314.721855922 , -3.90625 , 6.41632080078 , -1.83868408203 
2018/05/21 14:12:23.417917 , -0.58984375 , -1.166015625 , 4.3466796875 , 20.9914529915 , -150.688644689 , -314.721855922 , -3.90625 , 6.41632080078 , -1.83868408203 
2018/05/21 14:12:23.710495 , -0.58984375 , -1.166015625 , 4.3466796875 , 20.9914529915 , -150.688644689 , -314.721855922 , -3.71551513672 , 3.92150878906 , 0.404357910156 
2018/05/21 14:12:24.003071 , -0.6396484375 , -1.1005859375 , 4.5390625 , 20.9914529915 , -150.688644689 , -314.721855922 , -3.71551513672 , 3.92150878906 , 0.404357910156 
2018/05/21 14:12:24.295708 , -0.6396484375 , -1.1005859375 , 4.5390625 , 20.9914529915 , -150.688644689 , -314.721855922 , -3.71551513672 , 3.92150878906 , 0.404357910156 
2018/05/21 14:12:24.588247 , -0.6396484375 , -1.1005859375 , 4.5390625 , 20.9914529915 , -150.688644689 , -314.721855922 , -3.99017333984 , 2.99835205078 , -1.32751464844 
2018/05/21 14:12:24.880799 , -0.7236328125 , -1.1240234375 , 4.5771484375 , 20.9914529915 , -150.688644689 , -314.721855922 , -3.99017333984 , 2.99835205078 , -1.32751464844 
2018/05/21 14:12:25.173440 , -0.7236328125 , -1.1240234375 , 4.5771484375 , 20.9914529915 , -150.688644689 , -314.721855922 , -3.99017333984 , 2.99835205078 , -1.32751464844 
2018/05/21 14:12:25.466152 , -0.7236328125 , -1.1240234375 , 4.5771484375 , 20.9914529915 , -150.688644689 , -314.721855922 , -3.99017333984 , 2.99835205078 , -1.32751464844 
2018/05/21 14:12:25.758516 , -0.6884765625 , -1.169921875 , 4.541015625 , 20.9914529915 , -150.688644689 , -314.721855922 , -3.86047363281 , 2.93731689453 , -1.3427734375 
2018/05/21 14:12:26.051302 , -0.6884765625 , -1.169921875 , 4.541015625 , 20.9914529915 , -150.688644689 , -314.721855922 , -3.86047363281 , 2.93731689453 , -1.3427734375 
2018/05/21 14:12:26.343795 , -0.6884765625 , -1.169921875 , 4.541015625 , 20.9914529915 , -150.688644689 , -314.721855922 , -3.86047363281 , 2.93731689453 , -1.3427734375 
2018/05/21 14:12:26.636245 , -0.6884765625 , -1.169921875 , 4.541015625 , 21.8910866911 , -155.336752137 , -311.423199023 , -5.66864013672 , 4.50897216797 , -3.30352783203 
2018/05/21 14:12:26.928804 , -0.689453125 , -1.2119140625 , 4.4267578125 , 21.8910866911 , -155.336752137 , -311.423199023 , -5.66864013672 , 4.50897216797 , -3.30352783203 
2018/05/21 14:12:27.221417 , -0.689453125 , -1.2119140625 , 4.4267578125 , 21.8910866911 , -155.336752137 , -311.423199023 , -5.66864013672 , 4.50897216797 , -3.30352783203 
2018/05/21 14:12:27.514086 , -0.689453125 , -1.2119140625 , 4.4267578125 , 21.8910866911 , -155.336752137 , -311.423199023 , -4.96673583984 , 3.44085693359 , -0.289916992188 
2018/05/21 14:12:27.806544 , -0.6484375 , -1.0810546875 , 4.384765625 , 24.1401709402 , -152.337973138 , -313.672283272 , -4.96673583984 , 3.44085693359 , -0.289916992188 
2018/05/21 14:12:28.099351 , -0.6484375 , -1.0810546875 , 4.384765625 , 24.1401709402 , -152.337973138 , -313.672283272 , -4.96673583984 , 3.44085693359 , -0.289916992188 
2018/05/21 14:12:28.391719 , -0.6484375 , -1.0810546875 , 4.384765625 , 24.1401709402 , -152.337973138 , -313.672283272 , -4.96673583984 , 3.44085693359 , -0.289916992188 
2018/05/21 14:12:28.684267 , -0.6484375 , -1.0810546875 , 4.384765625 , 16.4932844933 , -149.639072039 , -301.677167277 , -3.28826904297 , 3.31115722656 , 0.885009765625 
2018/05/21 14:12:28.976763 , -0.6640625 , -1.1005859375 , 4.46484375 , 16.4932844933 , -149.639072039 , -301.677167277 , -3.28826904297 , 3.31115722656 , 0.885009765625 
2018/05/21 14:12:29.270007 , -0.6640625 , -1.1005859375 , 4.46484375 , 16.4932844933 , -149.639072039 , -301.677167277 , -3.28826904297 , 3.31115722656 , 0.885009765625 
2018/05/21 14:12:29.561933 , -0.6640625 , -1.1005859375 , 4.46484375 , 16.4932844933 , -149.639072039 , -301.677167277 , -3.12042236328 , 3.11279296875 , -0.434875488281 
2018/05/21 14:12:29.854556 , -0.6513671875 , -1.12109375 , 4.513671875 , 18.8923076923 , -148.889377289 , -315.771428571 , -3.12042236328 , 3.11279296875 , -0.434875488281 
2018/05/21 14:12:30.147150 , -0.6513671875 , -1.12109375 , 4.513671875 , 18.8923076923 , -148.889377289 , -315.771428571 , -3.12042236328 , 3.11279296875 , -0.434875488281 
2018/05/21 14:12:30.439699 , -0.6513671875 , -1.12109375 , 4.513671875 , 18.8923076923 , -148.889377289 , -315.771428571 , -3.12042236328 , 3.11279296875 , -0.434875488281 
2018/05/21 14:12:30.732202 , -0.6669921875 , -1.0673828125 , 4.462890625 , 15.1438339438 , -147.68986569 , -298.828327228 , -1.67083740234 , 1.91497802734 , -1.31225585938 
2018/05/21 14:12:31.024836 , -0.6669921875 , -1.0673828125 , 4.462890625 , 15.1438339438 , -147.68986569 , -298.828327228 , -1.67083740234 , 1.91497802734 , -1.31225585938 
2018/05/21 14:12:31.317381 , -0.6669921875 , -1.0673828125 , 4.462890625 , 15.1438339438 , -147.68986569 , -298.828327228 , -1.67083740234 , 1.91497802734 , -1.31225585938 
2018/05/21 14:12:31.609946 , -0.6669921875 , -1.0673828125 , 4.462890625 , 21.7411477411 , -152.787789988 , -318.17045177 , -4.67681884766 , 2.20489501953 , -1.06048583984 
2018/05/21 14:12:31.902484 , -0.7001953125 , -1.1328125 , 4.318359375 , 21.7411477411 , -152.787789988 , -318.17045177 , -4.67681884766 , 2.20489501953 , -1.06048583984 
2018/05/21 14:12:32.195229 , -0.7001953125 , -1.1328125 , 4.318359375 , 21.7411477411 , -152.787789988 , -318.17045177 , -4.67681884766 , 2.20489501953 , -1.06048583984 
2018/05/21 14:12:32.487634 , -0.7001953125 , -1.1328125 , 4.318359375 , 21.7411477411 , -152.787789988 , -318.17045177 , -4.67681884766 , 2.20489501953 , -1.06048583984 
2018/05/21 14:12:32.780211 , -0.720703125 , -1.0927734375 , 4.390625 , 21.7411477411 , -152.787789988 , -318.17045177 , -3.99017333984 , 3.94439697266 , -3.14331054688 
2018/05/21 14:12:33.072985 , -0.720703125 , -1.0927734375 , 4.390625 , 21.7411477411 , -152.787789988 , -318.17045177 , -3.99017333984 , 3.94439697266 , -3.14331054688 
2018/05/21 14:12:33.365317 , -0.720703125 , -1.0927734375 , 4.390625 , 21.7411477411 , -152.787789988 , -318.17045177 , -3.99017333984 , 3.94439697266 , -3.14331054688 
2018/05/21 14:12:33.657868 , -0.720703125 , -1.0927734375 , 4.390625 , 20.0918192918 , -155.036874237 , -304.975824176 , -6.72912597656 , 3.99780273438 , -2.00653076172 
2018/05/21 14:12:33.950415 , -0.6630859375 , -1.1728515625 , 4.4150390625 , 20.0918192918 , -155.036874237 , -304.975824176 , -6.72912597656 , 3.99780273438 , -2.00653076172 
2018/05/21 14:12:34.243013 , -0.6630859375 , -1.1728515625 , 4.4150390625 , 20.0918192918 , -155.036874237 , -304.975824176 , -6.72912597656 , 3.99780273438 , -2.00653076172 
2018/05/21 14:12:34.535621 , -0.6630859375 , -1.1728515625 , 4.4150390625 , 20.0918192918 , -155.036874237 , -304.975824176 , -3.35693359375 , 3.04412841797 , -0.930786132812 
2018/05/21 14:12:34.828112 , -0.7802734375 , -1.1181640625 , 4.4970703125 , 29.8378510379 , -155.636630037 , -312.022954823 , -3.35693359375 , 3.04412841797 , -0.930786132812 
2018/05/21 14:12:35.120876 , -0.7802734375 , -1.1181640625 , 4.4970703125 , 29.8378510379 , -155.636630037 , -312.022954823 , -3.35693359375 , 3.04412841797 , -0.930786132812 
2018/05/21 14:12:35.413412 , -0.7802734375 , -1.1181640625 , 4.4970703125 , 29.8378510379 , -155.636630037 , -312.022954823 , -3.35693359375 , 3.04412841797 , -0.930786132812 
2018/05/21 14:12:35.705786 , -0.7802734375 , -1.1181640625 , 4.4970703125 , 26.989010989 , -153.087667888 , -310.973382173 , -3.21960449219 , 3.65447998047 , -2.51770019531 
2018/05/21 14:12:35.998332 , -0.6630859375 , -1.0703125 , 4.50390625 , 26.989010989 , -153.087667888 , -310.973382173 , -3.21960449219 , 3.65447998047 , -2.51770019531 
2018/05/21 14:12:36.291071 , -0.6630859375 , -1.0703125 , 4.50390625 , 26.989010989 , -153.087667888 , -310.973382173 , -3.21960449219 , 3.65447998047 , -2.51770019531 
2018/05/21 14:12:36.583718 , -0.6630859375 , -1.0703125 , 4.50390625 , 26.989010989 , -153.087667888 , -310.973382173 , -2.66265869141 , 3.63159179688 , 0.0839233398438 
2018/05/21 14:12:36.876075 , -0.626953125 , -1.1298828125 , 4.52734375 , 22.7907203907 , -149.189255189 , -313.372405372 , -2.66265869141 , 3.63159179688 , 0.0839233398438 
2018/05/21 14:12:37.168667 , -0.626953125 , -1.1298828125 , 4.52734375 , 22.7907203907 , -149.189255189 , -313.372405372 , -2.66265869141 , 3.63159179688 , 0.0839233398438 
2018/05/21 14:12:37.461220 , -0.626953125 , -1.1298828125 , 4.52734375 , 22.7907203907 , -149.189255189 , -313.372405372 , -2.66265869141 , 3.63159179688 , 0.0839233398438 
2018/05/21 14:12:37.753740 , -0.6591796875 , -1.0966796875 , 4.5673828125 , 25.7894993895 , -151.438339438 , -311.123321123 , -2.22778320312 , 4.11987304688 , -1.25122070312 
2018/05/21 14:12:38.046797 , -0.6591796875 , -1.0966796875 , 4.5673828125 , 25.7894993895 , -151.438339438 , -311.123321123 , -2.22778320312 , 4.11987304688 , -1.25122070312 
2018/05/21 14:12:38.338973 , -0.6591796875 , -1.0966796875 , 4.5673828125 , 25.7894993895 , -151.438339438 , -311.123321123 , -2.22778320312 , 4.11987304688 , -1.25122070312 
2018/05/21 14:12:38.631507 , -0.6591796875 , -1.0966796875 , 4.5673828125 , 26.8390720391 , -153.987301587 , -313.222466422 , -4.86755371094 , 5.27191162109 , -1.49536132812 
2018/05/21 14:12:38.924040 , -0.7333984375 , -1.1474609375 , 4.2958984375 , 26.8390720391 , -153.987301587 , -313.222466422 , -4.86755371094 , 5.27191162109 , -1.49536132812 
2018/05/21 14:12:39.216706 , -0.7333984375 , -1.1474609375 , 4.2958984375 , 26.8390720391 , -153.987301587 , -313.222466422 , -4.86755371094 , 5.27191162109 , -1.49536132812 
2018/05/21 14:12:39.509097 , -0.7333984375 , -1.1474609375 , 4.2958984375 , 26.8390720391 , -153.987301587 , -313.222466422 , -4.86755371094 , 5.27191162109 , -1.49536132812 
2018/05/21 14:12:39.801638 , -0.6123046875 , -1.16796875 , 4.4267578125 , 22.9406593407 , -150.388766789 , -312.472771673 , -3.68499755859 , 2.76947021484 , -3.40270996094 
2018/05/21 14:12:40.094422 , -0.6123046875 , -1.16796875 , 4.4267578125 , 22.9406593407 , -150.388766789 , -312.472771673 , -3.68499755859 , 2.76947021484 , -3.40270996094 
2018/05/21 14:12:40.386754 , -0.6123046875 , -1.16796875 , 4.4267578125 , 22.9406593407 , -150.388766789 , -312.472771673 , -3.68499755859 , 2.76947021484 , -3.40270996094 
2018/05/21 14:12:40.679288 , -0.6123046875 , -1.16796875 , 4.4267578125 , 25.1897435897 , -153.387545788 , -313.372405372 , -3.5400390625 , 2.89916992188 , -1.89971923828 
2018/05/21 14:12:40.971873 , -0.70703125 , -1.1171875 , 4.5029296875 , 25.1897435897 , -153.387545788 , -313.372405372 , -3.5400390625 , 2.89916992188 , -1.89971923828 
2018/05/21 14:12:41.264693 , -0.70703125 , -1.1171875 , 4.5029296875 , 25.1897435897 , -153.387545788 , -313.372405372 , -3.5400390625 , 2.89916992188 , -1.89971923828 
2018/05/21 14:12:41.556968 , -0.70703125 , -1.1171875 , 4.5029296875 , 25.1897435897 , -153.387545788 , -313.372405372 , -2.71606445312 , 3.62396240234 , -1.38854980469 
2018/05/21 14:12:41.849592 , -0.623046875 , -1.08984375 , 4.5751953125 , 25.6395604396 , -155.936507937 , -312.022954823 , -2.71606445312 , 3.62396240234 , -1.38854980469 
2018/05/21 14:12:42.142238 , -0.623046875 , -1.08984375 , 4.5751953125 , 25.6395604396 , -155.936507937 , -312.022954823 , -2.71606445312 , 3.62396240234 , -1.38854980469 
2018/05/21 14:12:42.434873 , -0.623046875 , -1.08984375 , 4.5751953125 , 25.6395604396 , -155.936507937 , -312.022954823 , -2.71606445312 , 3.62396240234 , -1.38854980469 
2018/05/21 14:12:42.727184 , -0.6669921875 , -1.083984375 , 4.54296875 , 26.8390720391 , -154.287179487 , -313.822222222 , -5.4931640625 , 4.28009033203 , -2.14385986328 
2018/05/21 14:12:43.019766 , -0.6669921875 , -1.083984375 , 4.54296875 , 26.8390720391 , -154.287179487 , -313.822222222 , -5.4931640625 , 4.28009033203 , -2.14385986328 
2018/05/21 14:12:43.312293 , -0.6669921875 , -1.083984375 , 4.54296875 , 26.8390720391 , -154.287179487 , -313.822222222 , -5.4931640625 , 4.28009033203 , -2.14385986328 
2018/05/21 14:12:43.604898 , -0.6669921875 , -1.083984375 , 4.54296875 , 26.8390720391 , -154.287179487 , -313.822222222 , -2.87628173828 , 5.60760498047 , -1.28173828125 
2018/05/21 14:12:43.897394 , -0.724609375 , -1.0244140625 , 4.509765625 , 23.8402930403 , -152.337973138 , -312.322832723 , -2.87628173828 , 5.60760498047 , -1.28173828125 
2018/05/21 14:12:44.190280 , -0.724609375 , -1.0244140625 , 4.509765625 , 23.8402930403 , -152.337973138 , -312.322832723 , -2.87628173828 , 5.60760498047 , -1.28173828125 
2018/05/21 14:12:44.482518 , -0.724609375 , -1.0244140625 , 4.509765625 , 23.8402930403 , -152.337973138 , -312.322832723 , -2.87628173828 , 5.60760498047 , -1.28173828125 
2018/05/21 14:12:44.775084 , -0.755859375 , -1.1396484375 , 4.40234375 , 23.2405372405 , -152.188034188 , -312.472771673 , -5.78308105469 , 4.12750244141 , -0.556945800781 
2018/05/21 14:12:45.067839 , -0.755859375 , -1.1396484375 , 4.40234375 , 23.2405372405 , -152.188034188 , -312.472771673 , -5.78308105469 , 4.12750244141 , -0.556945800781 
2018/05/21 14:12:45.360391 , -0.755859375 , -1.1396484375 , 4.40234375 , 23.2405372405 , -152.188034188 , -312.472771673 , -5.78308105469 , 4.12750244141 , -0.556945800781 
2018/05/21 14:12:45.652706 , -0.755859375 , -1.1396484375 , 4.40234375 , 24.2901098901 , -156.836141636 , -314.571916972 , -3.49426269531 , 3.99780273438 , -1.15966796875 
2018/05/21 14:12:45.945292 , -0.5546875 , -1.0546875 , 4.466796875 , 24.2901098901 , -156.836141636 , -314.571916972 , -3.49426269531 , 3.99780273438 , -1.15966796875 
2018/05/21 14:12:46.238023 , -0.5546875 , -1.0546875 , 4.466796875 , 24.2901098901 , -156.836141636 , -314.571916972 , -3.49426269531 , 3.99780273438 , -1.15966796875 
2018/05/21 14:12:46.530369 , -0.5546875 , -1.0546875 , 4.466796875 , 24.2901098901 , -156.836141636 , -314.571916972 , -2.23541259766 , 3.53240966797 , -2.85339355469 
2018/05/21 14:12:46.822919 , -0.6025390625 , -1.0576171875 , 4.4609375 , 27.8886446886 , -157.136019536 , -312.172893773 , -2.23541259766 , 3.53240966797 , -2.85339355469 
2018/05/21 14:12:47.115641 , -0.6025390625 , -1.0576171875 , 4.4609375 , 27.8886446886 , -157.136019536 , -312.172893773 , -2.23541259766 , 3.53240966797 , -2.85339355469 
2018/05/21 14:12:47.408003 , -0.6025390625 , -1.0576171875 , 4.4609375 , 27.8886446886 , -157.136019536 , -312.172893773 , -2.23541259766 , 3.53240966797 , -2.85339355469 
2018/05/21 14:12:47.700551 , -0.6025390625 , -1.0576171875 , 4.4609375 , 22.7907203907 , -152.337973138 , -310.673504274 , -4.09698486328 , 6.18743896484 , -2.89916992188 
2018/05/21 14:12:47.993126 , -0.7392578125 , -1.0615234375 , 4.4794921875 , 22.7907203907 , -152.337973138 , -310.673504274 , -4.09698486328 , 6.18743896484 , -2.89916992188 
2018/05/21 14:12:48.285691 , -0.7392578125 , -1.0615234375 , 4.4794921875 , 22.7907203907 , -152.337973138 , -310.673504274 , -4.09698486328 , 6.18743896484 , -2.89916992188 
2018/05/21 14:12:48.578263 , -0.7392578125 , -1.0615234375 , 4.4794921875 , 22.7907203907 , -152.337973138 , -310.673504274 , -4.61578369141 , 4.99725341797 , -0.9765625 
2018/05/21 14:12:48.870736 , -0.5517578125 , -1.0576171875 , 4.3740234375 , 23.0905982906 , -152.787789988 , -313.672283272 , -4.61578369141 , 4.99725341797 , -0.9765625 
2018/05/21 14:12:49.163380 , -0.5517578125 , -1.0576171875 , 4.3740234375 , 23.0905982906 , -152.787789988 , -313.672283272 , -4.61578369141 , 4.99725341797 , -0.9765625 
2018/05/21 14:12:49.456022 , -0.5517578125 , -1.0576171875 , 4.3740234375 , 23.0905982906 , -152.787789988 , -313.672283272 , -4.61578369141 , 4.99725341797 , -0.9765625 
2018/05/21 14:12:49.748383 , -0.6357421875 , -1.0205078125 , 4.4326171875 , 25.7894993895 , -153.687423687 , -311.123321123 , -5.09643554688 , 5.08117675781 , -1.78527832031 
2018/05/21 14:12:50.040964 , -0.6357421875 , -1.0205078125 , 4.4326171875 , 25.7894993895 , -153.687423687 , -311.123321123 , -5.09643554688 , 5.08117675781 , -1.78527832031 
2018/05/21 14:12:50.333504 , -0.6357421875 , -1.0205078125 , 4.4326171875 , 25.7894993895 , -153.687423687 , -311.123321123 , -5.09643554688 , 5.08117675781 , -1.78527832031 
2018/05/21 14:12:50.626012 , -0.6357421875 , -1.0205078125 , 4.4326171875 , 25.1897435897 , -156.236385836 , -313.972161172 , -5.02777099609 , 4.83703613281 , -1.30462646484 
2018/05/21 14:12:50.918557 , -0.5947265625 , -1.1123046875 , 4.5244140625 , 25.1897435897 , -156.236385836 , -313.972161172 , -5.02777099609 , 4.83703613281 , -1.30462646484 
2018/05/21 14:12:51.211288 , -0.5947265625 , -1.1123046875 , 4.5244140625 , 25.1897435897 , -156.236385836 , -313.972161172 , -5.02777099609 , 4.83703613281 , -1.30462646484 
2018/05/21 14:12:51.503647 , -0.5947265625 , -1.1123046875 , 4.5244140625 , 25.1897435897 , -156.236385836 , -313.972161172 , -5.02777099609 , 4.83703613281 , -1.30462646484 
2018/05/21 14:12:51.796254 , -0.70703125 , -1.0712890625 , 4.5576171875 , 23.5404151404 , -153.087667888 , -312.022954823 , -5.52368164062 , 4.96673583984 , -2.86865234375 
2018/05/21 14:12:52.088980 , -0.70703125 , -1.0712890625 , 4.5576171875 , 23.5404151404 , -153.087667888 , -312.022954823 , -5.52368164062 , 4.96673583984 , -2.86865234375 
2018/05/21 14:12:52.381305 , -0.70703125 , -1.0712890625 , 4.5576171875 , 23.5404151404 , -153.087667888 , -312.022954823 , -5.52368164062 , 4.96673583984 , -2.86865234375 
2018/05/21 14:12:52.673844 , -0.70703125 , -1.0712890625 , 4.5576171875 , 23.6903540904 , -152.637851038 , -312.472771673 , -3.43322753906 , 4.50134277344 , -2.64739990234 
2018/05/21 14:12:52.966373 , -0.650390625 , -1.099609375 , 4.4658203125 , 23.6903540904 , -152.637851038 , -312.472771673 , -3.43322753906 , 4.50134277344 , -2.64739990234 
2018/05/21 14:12:53.259138 , -0.650390625 , -1.099609375 , 4.4658203125 , 23.6903540904 , -152.637851038 , -312.472771673 , -3.43322753906 , 4.50134277344 , -2.64739990234 
2018/05/21 14:12:53.551495 , -0.650390625 , -1.099609375 , 4.4658203125 , 23.6903540904 , -152.637851038 , -312.472771673 , -3.90625 , 2.63977050781 , -0.556945800781 
2018/05/21 14:12:53.844124 , -0.71875 , -1.0107421875 , 4.3525390625 , 24.7399267399 , -155.336752137 , -310.373626374 , -3.90625 , 2.63977050781 , -0.556945800781 
2018/05/21 14:12:54.136778 , -0.71875 , -1.0107421875 , 4.3525390625 , 24.7399267399 , -155.336752137 , -310.373626374 , -3.90625 , 2.63977050781 , -0.556945800781 
2018/05/21 14:12:54.429175 , -0.71875 , -1.0107421875 , 4.3525390625 , 24.7399267399 , -155.336752137 , -310.373626374 , -3.90625 , 2.63977050781 , -0.556945800781 
2018/05/21 14:12:54.721645 , -0.72265625 , -1.1591796875 , 4.4404296875 , 24.58998779 , -154.137240537 , -312.322832723 , -5.07354736328 , 2.44903564453 , -1.93786621094 
2018/05/21 14:12:55.014303 , -0.72265625 , -1.1591796875 , 4.4404296875 , 24.58998779 , -154.137240537 , -312.322832723 , -5.07354736328 , 2.44903564453 , -1.93786621094 
2018/05/21 14:12:55.306824 , -0.72265625 , -1.1591796875 , 4.4404296875 , 24.58998779 , -154.137240537 , -312.322832723 , -5.07354736328 , 2.44903564453 , -1.93786621094 
2018/05/21 14:12:55.599366 , -0.72265625 , -1.1591796875 , 4.4404296875 , 24.58998779 , -154.137240537 , -312.322832723 , -5.05828857422 , 2.25067138672 , -1.88446044922 
2018/05/21 14:12:55.891829 , -0.6318359375 , -1.1005859375 , 4.4921875 , 19.7919413919 , -149.339194139 , -312.772649573 , -5.05828857422 , 2.25067138672 , -1.88446044922 
2018/05/21 14:12:56.184729 , -0.6318359375 , -1.1005859375 , 4.4921875 , 19.7919413919 , -149.339194139 , -312.772649573 , -5.05828857422 , 2.25067138672 , -1.88446044922 
2018/05/21 14:12:56.476952 , -0.6318359375 , -1.1005859375 , 4.4921875 , 19.7919413919 , -149.339194139 , -312.772649573 , -5.05828857422 , 2.25067138672 , -1.88446044922 
2018/05/21 14:12:56.769484 , -0.5986328125 , -1.060546875 , 4.47265625 , 24.1401709402 , -152.337973138 , -311.573137973 , -4.08172607422 , 3.81469726562 , 0.930786132812 
2018/05/21 14:12:57.062201 , -0.5986328125 , -1.060546875 , 4.47265625 , 24.1401709402 , -152.337973138 , -311.573137973 , -4.08172607422 , 3.81469726562 , 0.930786132812 
2018/05/21 14:12:57.354615 , -0.5986328125 , -1.060546875 , 4.47265625 , 24.1401709402 , -152.337973138 , -311.573137973 , -4.08172607422 , 3.81469726562 , 0.930786132812 
2018/05/21 14:12:57.647121 , -0.5986328125 , -1.060546875 , 4.47265625 , 24.8898656899 , -153.087667888 , -312.322832723 , -3.77655029297 , 4.08935546875 , -0.831604003906 
2018/05/21 14:12:57.939628 , -0.65625 , -1.076171875 , 4.455078125 , 24.8898656899 , -153.087667888 , -312.322832723 , -3.77655029297 , 4.08935546875 , -0.831604003906 
2018/05/21 14:12:58.232241 , -0.65625 , -1.076171875 , 4.455078125 , 24.8898656899 , -153.087667888 , -312.322832723 , -3.77655029297 , 4.08935546875 , -0.831604003906 
2018/05/21 14:12:58.524767 , -0.65625 , -1.076171875 , 4.455078125 , 24.8898656899 , -153.087667888 , -312.322832723 , -4.79125976562 , 5.64575195312 , -3.28826904297 
2018/05/21 14:12:58.817274 , -0.650390625 , -1.025390625 , 4.55078125 , 23.9902319902 , -154.287179487 , -310.823443223 , -4.79125976562 , 5.64575195312 , -3.28826904297 
2018/05/21 14:12:59.110003 , -0.650390625 , -1.025390625 , 4.55078125 , 23.9902319902 , -154.287179487 , -310.823443223 , -4.79125976562 , 5.64575195312 , -3.28826904297 
2018/05/21 14:12:59.402518 , -0.650390625 , -1.025390625 , 4.55078125 , 23.9902319902 , -154.287179487 , -310.823443223 , -4.79125976562 , 5.64575195312 , -3.28826904297 
2018/05/21 14:12:59.694899 , -0.650390625 , -1.025390625 , 4.55078125 , 23.9902319902 , -154.287179487 , -310.823443223 , -4.11224365234 , 3.36456298828 , -4.05883789062 
2018/05/21 14:12:59.987429 , -0.6318359375 , -1.1396484375 , 4.302734375 , 23.9902319902 , -154.287179487 , -310.823443223 , -4.11224365234 , 3.36456298828 , -4.05883789062 
2018/05/21 14:13:00.280008 , -0.6318359375 , -1.1396484375 , 4.302734375 , 23.9902319902 , -154.287179487 , -310.823443223 , -4.11224365234 , 3.36456298828 , -4.05883789062 
2018/05/21 14:13:00.572537 , -0.6318359375 , -1.1396484375 , 4.302734375 , 23.9902319902 , -154.287179487 , -310.823443223 , -3.73077392578 , 8.36944580078 , -2.91442871094 
2018/05/21 14:13:00.865044 , -0.63671875 , -0.978515625 , 4.443359375 , 24.2901098901 , -155.036874237 , -311.423199023 , -3.73077392578 , 8.36944580078 , -2.91442871094 
2018/05/21 14:13:01.157655 , -0.63671875 , -0.978515625 , 4.443359375 , 24.2901098901 , -155.036874237 , -311.423199023 , -3.73077392578 , 8.36944580078 , -2.91442871094 
2018/05/21 14:13:01.450160 , -0.63671875 , -0.978515625 , 4.443359375 , 24.2901098901 , -155.036874237 , -311.423199023 , -3.73077392578 , 8.36944580078 , -2.91442871094 
2018/05/21 14:13:01.742685 , -0.537109375 , -1.0732421875 , 4.4912109375 , 24.2901098901 , -155.036874237 , -311.423199023 , -4.28771972656 , 1.8310546875 , -2.95257568359 
2018/05/21 14:13:02.035223 , -0.537109375 , -1.0732421875 , 4.4912109375 , 24.2901098901 , -155.036874237 , -311.423199023 , -4.28771972656 , 1.8310546875 , -2.95257568359 
2018/05/21 14:13:02.327929 , -0.537109375 , -1.0732421875 , 4.4912109375 , 24.2901098901 , -155.036874237 , -311.423199023 , -4.28771972656 , 1.8310546875 , -2.95257568359 
2018/05/21 14:13:02.620481 , -0.537109375 , -1.0732421875 , 4.4912109375 , 20.2417582418 , -154.137240537 , -312.622710623 , -4.8828125 , 6.40869140625 , -1.77764892578 
2018/05/21 14:13:02.913004 , -0.6064453125 , -1.1328125 , 4.451171875 , 20.2417582418 , -154.137240537 , -312.622710623 , -4.8828125 , 6.40869140625 , -1.77764892578 
2018/05/21 14:13:03.205657 , -0.6064453125 , -1.1328125 , 4.451171875 , 20.2417582418 , -154.137240537 , -312.622710623 , -4.8828125 , 6.40869140625 , -1.77764892578 
2018/05/21 14:13:03.498046 , -0.6064453125 , -1.1328125 , 4.451171875 , 20.2417582418 , -154.137240537 , -312.622710623 , -4.8828125 , 6.40869140625 , -1.77764892578 
2018/05/21 14:13:03.790494 , -0.54296875 , -1.1435546875 , 4.453125 , 20.2417582418 , -154.137240537 , -312.622710623 , -5.31768798828 , 3.52478027344 , 0.8544921875 
2018/05/21 14:13:04.083196 , -0.54296875 , -1.1435546875 , 4.453125 , 20.2417582418 , -154.137240537 , -312.622710623 , -5.31768798828 , 3.52478027344 , 0.8544921875 
2018/05/21 14:13:04.375560 , -0.54296875 , -1.1435546875 , 4.453125 , 20.2417582418 , -154.137240537 , -312.622710623 , -5.31768798828 , 3.52478027344 , 0.8544921875 
2018/05/21 14:13:04.668154 , -0.54296875 , -1.1435546875 , 4.453125 , 34.0361416361 , -149.639072039 , -289.831990232 , -5.31768798828 , 2.25067138672 , -0.0457763671875 
2018/05/21 14:13:04.960648 , -0.6240234375 , -1.08984375 , 4.4951171875 , 34.0361416361 , -149.639072039 , -289.831990232 , -5.31768798828 , 2.25067138672 , -0.0457763671875 
2018/05/21 14:13:05.253228 , -0.6240234375 , -1.08984375 , 4.4951171875 , 34.0361416361 , -149.639072039 , -289.831990232 , -5.31768798828 , 2.25067138672 , -0.0457763671875 
2018/05/21 14:13:05.545770 , -0.6240234375 , -1.08984375 , 4.4951171875 , 34.0361416361 , -149.639072039 , -289.831990232 , -2.33459472656 , 1.89208984375 , -2.02178955078 
2018/05/21 14:13:05.838346 , -0.73046875 , -1.0556640625 , 4.4912109375 , 30.7374847375 , -153.987301587 , -292.081074481 , -2.33459472656 , 1.89208984375 , -2.02178955078 
2018/05/21 14:13:06.131070 , -0.73046875 , -1.0556640625 , 4.4912109375 , 30.7374847375 , -153.987301587 , -292.081074481 , -2.33459472656 , 1.89208984375 , -2.02178955078 
2018/05/21 14:13:06.423461 , -0.73046875 , -1.0556640625 , 4.4912109375 , 30.7374847375 , -153.987301587 , -292.081074481 , -2.33459472656 , 1.89208984375 , -2.02178955078 
2018/05/21 14:13:06.716126 , -0.66796875 , -1.1376953125 , 4.3935546875 , 28.1885225885 , -147.24004884 , -297.178998779 , -1.90734863281 , 5.98907470703 , -3.28063964844 
2018/05/21 14:13:07.008490 , -0.66796875 , -1.1376953125 , 4.3935546875 , 28.1885225885 , -147.24004884 , -297.178998779 , -1.90734863281 , 5.98907470703 , -3.28063964844 
2018/05/21 14:13:07.301013 , -0.66796875 , -1.1376953125 , 4.3935546875 , 28.1885225885 , -147.24004884 , -297.178998779 , -1.90734863281 , 5.98907470703 , -3.28063964844 
2018/05/21 14:13:07.593563 , -0.66796875 , -1.1376953125 , 4.3935546875 , 28.1885225885 , -147.24004884 , -297.178998779 , -3.26538085938 , 5.83648681641 , -1.96075439453 
2018/05/21 14:13:07.886087 , -0.556640625 , -1.0322265625 , 4.52734375 , 32.2368742369 , -136.894261294 , -266.591452991 , -3.26538085938 , 5.83648681641 , -1.96075439453 
2018/05/21 14:13:08.178682 , -0.556640625 , -1.0322265625 , 4.52734375 , 32.2368742369 , -136.894261294 , -266.591452991 , -3.26538085938 , 5.83648681641 , -1.96075439453 
2018/05/21 14:13:08.471218 , -0.556640625 , -1.0322265625 , 4.52734375 , 32.2368742369 , -136.894261294 , -266.591452991 , -3.26538085938 , 5.83648681641 , -1.96075439453 
2018/05/21 14:13:08.763857 , -0.615234375 , -1.056640625 , 4.5263671875 , 34.485958486 , -151.138461538 , -293.73040293 , -4.39453125 , 9.34600830078 , -1.90734863281 
2018/05/21 14:13:09.056469 , -0.615234375 , -1.056640625 , 4.5263671875 , 34.485958486 , -151.138461538 , -293.73040293 , -4.39453125 , 9.34600830078 , -1.90734863281 
2018/05/21 14:13:09.348930 , -0.615234375 , -1.056640625 , 4.5263671875 , 34.485958486 , -151.138461538 , -293.73040293 , -4.39453125 , 9.34600830078 , -1.90734863281 
2018/05/21 14:13:09.641355 , -0.615234375 , -1.056640625 , 4.5263671875 , 24.2901098901 , -149.039316239 , -285.183882784 , -4.91333007812 , 4.57763671875 , -0.511169433594 
2018/05/21 14:13:09.933877 , -0.587890625 , -1.080078125 , 4.5556640625 , 24.2901098901 , -149.039316239 , -285.183882784 , -4.91333007812 , 4.57763671875 , -0.511169433594 
2018/05/21 14:13:10.226557 , -0.587890625 , -1.080078125 , 4.5556640625 , 24.2901098901 , -149.039316239 , -285.183882784 , -4.91333007812 , 4.57763671875 , -0.511169433594 
2018/05/21 14:13:10.518924 , -0.587890625 , -1.080078125 , 4.5556640625 , 24.2901098901 , -149.039316239 , -285.183882784 , -1.5869140625 , 4.78363037109 , -2.02178955078 
2018/05/21 14:13:10.811455 , -0.63671875 , -1.138671875 , 4.3974609375 , 33.1365079365 , -152.188034188 , -295.82954823 , -1.5869140625 , 4.78363037109 , -2.02178955078 
2018/05/21 14:13:11.104216 , -0.63671875 , -1.138671875 , 4.3974609375 , 33.1365079365 , -152.188034188 , -295.82954823 , -1.5869140625 , 4.78363037109 , -2.02178955078 
2018/05/21 14:13:11.396479 , -0.63671875 , -1.138671875 , 4.3974609375 , 33.1365079365 , -152.188034188 , -295.82954823 , -1.5869140625 , 4.78363037109 , -2.02178955078 
2018/05/21 14:13:11.689040 , -0.63671875 , -1.138671875 , 4.3974609375 , 26.2393162393 , -152.787789988 , -287.133089133 , -3.65447998047 , 1.23596191406 , -1.54113769531 
2018/05/21 14:13:11.981757 , -0.708984375 , -1.1455078125 , 4.4609375 , 26.2393162393 , -152.787789988 , -287.133089133 , -3.65447998047 , 1.23596191406 , -1.54113769531 
2018/05/21 14:13:12.274294 , -0.708984375 , -1.1455078125 , 4.4609375 , 26.2393162393 , -152.787789988 , -287.133089133 , -3.65447998047 , 1.23596191406 , -1.54113769531 
2018/05/21 14:13:12.566650 , -0.708984375 , -1.1455078125 , 4.4609375 , 26.2393162393 , -152.787789988 , -287.133089133 , -3.20434570312 , 3.73077392578 , -1.85394287109 
2018/05/21 14:13:12.859165 , -0.654296875 , -1.228515625 , 4.400390625 , 32.8366300366 , -157.435897436 , -301.227350427 , -3.20434570312 , 3.73077392578 , -1.85394287109 
2018/05/21 14:13:13.151933 , -0.654296875 , -1.228515625 , 4.400390625 , 32.8366300366 , -157.435897436 , -301.227350427 , -3.20434570312 , 3.73077392578 , -1.85394287109 
2018/05/21 14:13:13.444319 , -0.654296875 , -1.228515625 , 4.400390625 , 32.8366300366 , -157.435897436 , -301.227350427 , -3.20434570312 , 3.73077392578 , -1.85394287109 
2018/05/21 14:13:13.736795 , -0.7060546875 , -1.0654296875 , 4.6005859375 , 32.8366300366 , -157.435897436 , -301.227350427 , -3.80706787109 , 6.09588623047 , -1.38092041016 
2018/05/21 14:13:14.029339 , -0.7060546875 , -1.0654296875 , 4.6005859375 , 32.8366300366 , -157.435897436 , -301.227350427 , -3.80706787109 , 6.09588623047 , -1.38092041016 
2018/05/21 14:13:14.321903 , -0.7060546875 , -1.0654296875 , 4.6005859375 , 32.8366300366 , -157.435897436 , -301.227350427 , -3.80706787109 , 6.09588623047 , -1.38092041016 
2018/05/21 14:13:14.614454 , -0.7060546875 , -1.0654296875 , 4.6005859375 , 32.8366300366 , -157.435897436 , -301.227350427 , -1.48773193359 , 4.79888916016 , 0.335693359375 
2018/05/21 14:13:14.906916 , -0.5947265625 , -1.0830078125 , 4.4248046875 , 23.0905982906 , -154.137240537 , -296.279365079 , -1.48773193359 , 4.79888916016 , 0.335693359375 
2018/05/21 14:13:15.199525 , -0.5947265625 , -1.0830078125 , 4.4248046875 , 23.0905982906 , -154.137240537 , -296.279365079 , -1.48773193359 , 4.79888916016 , 0.335693359375 
2018/05/21 14:13:15.492055 , -0.5947265625 , -1.0830078125 , 4.4248046875 , 23.0905982906 , -154.137240537 , -296.279365079 , -1.48773193359 , 4.79888916016 , 0.335693359375 
2018/05/21 14:13:15.784525 , -0.599609375 , -1.087890625 , 4.5146484375 , 23.0905982906 , -154.137240537 , -296.279365079 , -4.85992431641 , 2.24304199219 , -1.39617919922 
2018/05/21 14:13:16.077314 , -0.599609375 , -1.087890625 , 4.5146484375 , 23.0905982906 , -154.137240537 , -296.279365079 , -4.85992431641 , 2.24304199219 , -1.39617919922 
2018/05/21 14:13:16.369643 , -0.599609375 , -1.087890625 , 4.5146484375 , 23.0905982906 , -154.137240537 , -296.279365079 , -4.85992431641 , 2.24304199219 , -1.39617919922 
2018/05/21 14:13:16.662196 , -0.599609375 , -1.087890625 , 4.5146484375 , 19.642002442 , -154.137240537 , -292.530891331 , -5.43212890625 , 2.28881835938 , -3.44848632812 
2018/05/21 14:13:16.954699 , -0.638671875 , -1.00390625 , 4.4912109375 , 19.642002442 , -154.137240537 , -292.530891331 , -5.43212890625 , 2.28881835938 , -3.44848632812 
2018/05/21 14:13:17.247530 , -0.638671875 , -1.00390625 , 4.4912109375 , 19.642002442 , -154.137240537 , -292.530891331 , -5.43212890625 , 2.28881835938 , -3.44848632812 
2018/05/21 14:13:17.539789 , -0.638671875 , -1.00390625 , 4.4912109375 , 19.642002442 , -154.137240537 , -292.530891331 , -5.62286376953 , 3.81469726562 , -0.442504882812 
2018/05/21 14:13:17.832320 , -0.6416015625 , -1.1005859375 , 4.5703125 , 21.7411477411 , -154.437118437 , -305.875457875 , -5.62286376953 , 3.81469726562 , -0.442504882812 
2018/05/21 14:13:18.125036 , -0.6416015625 , -1.1005859375 , 4.5703125 , 21.7411477411 , -154.437118437 , -305.875457875 , -5.62286376953 , 3.81469726562 , -0.442504882812 
2018/05/21 14:13:18.417423 , -0.6416015625 , -1.1005859375 , 4.5703125 , 21.7411477411 , -154.437118437 , -305.875457875 , -5.62286376953 , 3.81469726562 , -0.442504882812 
2018/05/21 14:13:18.709887 , -0.6416015625 , -1.1005859375 , 4.5703125 , 30.1377289377 , -157.285958486 , -300.327716728 , -4.43267822266 , 6.08062744141 , -0.762939453125 
