Connecting to 24:71:89:C1:0D:07
time ,acc-x,acc-y,acc-z ,mag-x,mag-y,mag-z ,gyr-x,gyr-y,gyr-z 
2018/05/16 11:57:28.144648 , 0.0 , 0.0 , 0.0 , 0.0 , 0.0 , 0.0 , 0.0 , 0.0 , 0.0 
2018/05/16 11:57:28.404007 , 0.0 , 0.0 , 0.0 , 0.0 , 0.0 , 0.0 , 0.0 , 0.0 , 0.0 
2018/05/16 11:57:28.745182 , 0.0 , 0.0 , 0.0 , 0.0 , 0.0 , 0.0 , -5.67626953125 , 4.53948974609 , -1.28936767578 
2018/05/16 11:57:29.086540 , 0.078369140625 , 0.88671875 , 0.547607421875 , 0.0 , 0.0 , 0.0 , -5.67626953125 , 4.53948974609 , -1.28936767578 
2018/05/16 11:57:29.378894 , 0.078369140625 , 0.88671875 , 0.547607421875 , 0.0 , 0.0 , 0.0 , -5.67626953125 , 4.53948974609 , -1.28936767578 
2018/05/16 11:57:29.671385 , 0.078369140625 , 0.88671875 , 0.547607421875 , 0.0 , 0.0 , 0.0 , -5.67626953125 , 4.53948974609 , -1.28936767578 
2018/05/16 11:57:29.963969 , 0.05712890625 , 0.82421875 , 0.52490234375 , 0.0 , 0.0 , 0.0 , -6.40106201172 , 4.99725341797 , -0.823974609375 
2018/05/16 11:57:30.256469 , 0.05712890625 , 0.82421875 , 0.52490234375 , 0.0 , 0.0 , 0.0 , -6.40106201172 , 4.99725341797 , -0.823974609375 
2018/05/16 11:57:30.548956 , 0.05712890625 , 0.82421875 , 0.52490234375 , 0.0 , 0.0 , 0.0 , -6.40106201172 , 4.99725341797 , -0.823974609375 
2018/05/16 11:57:30.841479 , 0.05712890625 , 0.82421875 , 0.52490234375 , 23.2405372405 , 33.8862026862 , -84.7155067155 , -6.24847412109 , 5.56182861328 , -0.862121582031 
2018/05/16 11:57:31.182920 , 0.026611328125 , 0.839599609375 , 0.55908203125 , 23.2405372405 , 33.8862026862 , -84.7155067155 , -6.24847412109 , 5.56182861328 , -0.862121582031 
2018/05/16 11:57:31.475210 , 0.026611328125 , 0.839599609375 , 0.55908203125 , 23.2405372405 , 33.8862026862 , -84.7155067155 , -6.24847412109 , 5.56182861328 , -0.862121582031 
2018/05/16 11:57:31.767734 , 0.026611328125 , 0.839599609375 , 0.55908203125 , 23.2405372405 , 33.8862026862 , -84.7155067155 , -3.92913818359 , 2.93731689453 , -0.564575195312 
2018/05/16 11:57:32.060229 , 0.029541015625 , 0.8671875 , 0.556396484375 , 24.8898656899 , 33.7362637363 , -86.3648351648 , -3.92913818359 , 2.93731689453 , -0.564575195312 
2018/05/16 11:57:32.352769 , 0.029541015625 , 0.8671875 , 0.556396484375 , 24.8898656899 , 33.7362637363 , -86.3648351648 , -3.92913818359 , 2.93731689453 , -0.564575195312 
2018/05/16 11:57:32.694098 , 0.029541015625 , 0.8671875 , 0.556396484375 , 24.8898656899 , 33.7362637363 , -86.3648351648 , -2.99072265625 , 5.18035888672 , 0.152587890625 
2018/05/16 11:57:32.986491 , 0.062255859375 , 0.862548828125 , 0.5322265625 , 23.5404151404 , 35.2356532357 , -86.3648351648 , -2.99072265625 , 5.18035888672 , 0.152587890625 
2018/05/16 11:57:33.278913 , 0.062255859375 , 0.862548828125 , 0.5322265625 , 23.5404151404 , 35.2356532357 , -86.3648351648 , -2.99072265625 , 5.18035888672 , 0.152587890625 
2018/05/16 11:57:33.571838 , 0.062255859375 , 0.862548828125 , 0.5322265625 , 23.5404151404 , 35.2356532357 , -86.3648351648 , -2.99072265625 , 5.18035888672 , 0.152587890625 
2018/05/16 11:57:33.863687 , 0.062255859375 , 0.862548828125 , 0.5322265625 , 23.0905982906 , 35.5355311355 , -86.6647130647 , -3.52478027344 , 4.93621826172 , -0.289916992188 
2018/05/16 11:57:34.156320 , 0.0234375 , 0.867431640625 , 0.5458984375 , 23.0905982906 , 35.5355311355 , -86.6647130647 , -3.52478027344 , 4.93621826172 , -0.289916992188 
2018/05/16 11:57:34.497816 , 0.0234375 , 0.867431640625 , 0.5458984375 , 23.0905982906 , 35.5355311355 , -86.6647130647 , -3.52478027344 , 4.93621826172 , -0.289916992188 
2018/05/16 11:57:34.888019 , 0.03466796875 , 0.937255859375 , 0.532470703125 , 23.0905982906 , 33.1365079365 , -87.2644688645 , -5.42449951172 , 6.91986083984 , 0.968933105469 
2018/05/16 11:57:35.180241 , 0.03466796875 , 0.937255859375 , 0.532470703125 , 23.0905982906 , 33.1365079365 , -87.2644688645 , -5.42449951172 , 6.91986083984 , 0.968933105469 
2018/05/16 11:57:35.472712 , 0.03466796875 , 0.937255859375 , 0.532470703125 , 23.0905982906 , 33.1365079365 , -87.2644688645 , -5.42449951172 , 6.91986083984 , 0.968933105469 
2018/05/16 11:57:35.765199 , 0.03466796875 , 0.937255859375 , 0.532470703125 , 23.0905982906 , 33.1365079365 , -87.2644688645 , -3.18908691406 , 3.92150878906 , -0.648498535156 
2018/05/16 11:57:36.106471 , 0.072021484375 , 0.891845703125 , 0.4990234375 , 24.58998779 , 34.7858363858 , -85.915018315 , -3.18908691406 , 3.92150878906 , -0.648498535156 
2018/05/16 11:57:36.447731 , 0.072021484375 , 0.891845703125 , 0.4990234375 , 24.58998779 , 34.7858363858 , -85.915018315 , -3.18908691406 , 3.92150878906 , -0.648498535156 
2018/05/16 11:57:36.740327 , 0.072021484375 , 0.891845703125 , 0.4990234375 , 24.58998779 , 34.7858363858 , -85.915018315 , -5.38635253906 , 4.73022460938 , -0.251770019531 
2018/05/16 11:57:37.032727 , -0.007080078125 , 0.909423828125 , 0.518798828125 , 22.6407814408 , 34.336019536 , -86.2148962149 , -5.38635253906 , 4.73022460938 , -0.251770019531 
2018/05/16 11:57:37.325257 , -0.007080078125 , 0.909423828125 , 0.518798828125 , 22.6407814408 , 34.336019536 , -86.2148962149 , -5.38635253906 , 4.73022460938 , -0.251770019531 
2018/05/16 11:57:37.666355 , -0.007080078125 , 0.909423828125 , 0.518798828125 , 22.6407814408 , 34.336019536 , -86.2148962149 , -5.38635253906 , 4.73022460938 , -0.251770019531 
2018/05/16 11:57:37.958689 , 0.08203125 , 0.891845703125 , 0.51220703125 , 24.7399267399 , 33.5863247863 , -86.2148962149 , -5.10406494141 , 6.12640380859 , 1.02996826172 
2018/05/16 11:57:38.251228 , 0.08203125 , 0.891845703125 , 0.51220703125 , 24.7399267399 , 33.5863247863 , -86.2148962149 , -5.10406494141 , 6.12640380859 , 1.02996826172 
2018/05/16 11:57:38.544063 , 0.08203125 , 0.891845703125 , 0.51220703125 , 24.7399267399 , 33.5863247863 , -86.2148962149 , -5.10406494141 , 6.12640380859 , 1.02996826172 
2018/05/16 11:57:38.836504 , 0.08203125 , 0.891845703125 , 0.51220703125 , 23.0905982906 , 33.4363858364 , -85.3152625153 , -5.74493408203 , 5.08117675781 , -0.0839233398438 
2018/05/16 11:57:39.128997 , 0.052978515625 , 0.865234375 , 0.5361328125 , 23.0905982906 , 33.4363858364 , -85.3152625153 , -5.74493408203 , 5.08117675781 , -0.0839233398438 
2018/05/16 11:57:39.421536 , 0.052978515625 , 0.865234375 , 0.5361328125 , 23.0905982906 , 33.4363858364 , -85.3152625153 , -5.74493408203 , 5.08117675781 , -0.0839233398438 
2018/05/16 11:57:39.762804 , 0.052978515625 , 0.865234375 , 0.5361328125 , 23.0905982906 , 33.4363858364 , -85.3152625153 , -5.62286376953 , 6.09588623047 , -0.679016113281 
2018/05/16 11:57:40.055386 , 0.0234375 , 0.80078125 , 0.529052734375 , 25.0398046398 , 33.8862026862 , -86.2148962149 , -5.62286376953 , 6.09588623047 , -0.679016113281 
2018/05/16 11:57:40.347814 , 0.0234375 , 0.80078125 , 0.529052734375 , 25.0398046398 , 33.8862026862 , -86.2148962149 , -5.62286376953 , 6.09588623047 , -0.679016113281 
2018/05/16 11:57:40.689021 , 0.0234375 , 0.80078125 , 0.529052734375 , 25.0398046398 , 33.8862026862 , -86.2148962149 , -4.61578369141 , 4.80651855469 , -0.190734863281 
2018/05/16 11:57:40.981497 , 0.037353515625 , 0.858154296875 , 0.518798828125 , 24.2901098901 , 34.6358974359 , -84.7155067155 , -4.61578369141 , 4.80651855469 , -0.190734863281 
2018/05/16 11:57:41.322994 , 0.037353515625 , 0.858154296875 , 0.518798828125 , 24.2901098901 , 34.6358974359 , -84.7155067155 , -4.61578369141 , 4.80651855469 , -0.190734863281 
2018/05/16 11:57:41.615272 , 0.037353515625 , 0.858154296875 , 0.518798828125 , 24.2901098901 , 34.6358974359 , -84.7155067155 , -4.61578369141 , 4.80651855469 , -0.190734863281 
2018/05/16 11:57:41.908714 , 0.02587890625 , 0.86328125 , 0.513427734375 , 24.7399267399 , 34.9357753358 , -85.1653235653 , -4.38690185547 , 4.09698486328 , -1.02996826172 
2018/05/16 11:57:42.200255 , 0.02587890625 , 0.86328125 , 0.513427734375 , 24.7399267399 , 34.9357753358 , -85.1653235653 , -4.38690185547 , 4.09698486328 , -1.02996826172 
2018/05/16 11:57:42.492807 , 0.02587890625 , 0.86328125 , 0.513427734375 , 24.7399267399 , 34.9357753358 , -85.1653235653 , -4.38690185547 , 4.09698486328 , -1.02996826172 
2018/05/16 11:57:42.785329 , 0.02587890625 , 0.86328125 , 0.513427734375 , 23.5404151404 , 34.485958486 , -85.915018315 , -5.14984130859 , 6.97326660156 , -0.587463378906 
2018/05/16 11:57:43.126727 , 0.0400390625 , 0.828369140625 , 0.597900390625 , 23.5404151404 , 34.485958486 , -85.915018315 , -5.14984130859 , 6.97326660156 , -0.587463378906 
2018/05/16 11:57:43.419071 , 0.0400390625 , 0.828369140625 , 0.597900390625 , 23.5404151404 , 34.485958486 , -85.915018315 , -5.14984130859 , 6.97326660156 , -0.587463378906 
2018/05/16 11:57:43.711729 , 0.0400390625 , 0.828369140625 , 0.597900390625 , 23.5404151404 , 34.485958486 , -85.915018315 , -5.44738769531 , 5.30242919922 , 0.297546386719 
2018/05/16 11:57:44.004111 , 0.0205078125 , 0.866455078125 , 0.574951171875 , 22.7907203907 , 34.7858363858 , -86.9645909646 , -5.44738769531 , 5.30242919922 , 0.297546386719 
2018/05/16 11:57:44.296580 , 0.0205078125 , 0.866455078125 , 0.574951171875 , 22.7907203907 , 34.7858363858 , -86.9645909646 , -5.44738769531 , 5.30242919922 , 0.297546386719 
2018/05/16 11:57:44.589114 , 0.0205078125 , 0.866455078125 , 0.574951171875 , 22.7907203907 , 34.7858363858 , -86.9645909646 , -5.44738769531 , 5.30242919922 , 0.297546386719 
2018/05/16 11:57:44.881613 , 0.0546875 , 0.91943359375 , 0.501953125 , 22.4908424908 , 33.4363858364 , -85.6151404151 , -5.23376464844 , 4.34112548828 , -1.83868408203 
2018/05/16 11:57:45.174181 , 0.0546875 , 0.91943359375 , 0.501953125 , 22.4908424908 , 33.4363858364 , -85.6151404151 , -5.23376464844 , 4.34112548828 , -1.83868408203 
2018/05/16 11:57:45.466737 , 0.0546875 , 0.91943359375 , 0.501953125 , 22.4908424908 , 33.4363858364 , -85.6151404151 , -5.23376464844 , 4.34112548828 , -1.83868408203 
2018/05/16 11:57:45.808082 , 0.0546875 , 0.91943359375 , 0.501953125 , 22.9406593407 , 33.2864468864 , -85.1653235653 , -3.28063964844 , 4.54711914062 , 1.88446044922 
2018/05/16 11:57:46.100468 , 0.0625 , 0.862548828125 , 0.5048828125 , 22.9406593407 , 33.2864468864 , -85.1653235653 , -3.28063964844 , 4.54711914062 , 1.88446044922 
2018/05/16 11:57:46.490399 , 0.0625 , 0.862548828125 , 0.5048828125 , 22.9406593407 , 33.2864468864 , -85.1653235653 , -3.28063964844 , 4.54711914062 , 1.88446044922 
2018/05/16 11:57:46.782845 , 0.0625 , 0.862548828125 , 0.5048828125 , 23.8402930403 , 34.485958486 , -85.3152625153 , -5.63049316406 , 5.19561767578 , -1.73187255859 
2018/05/16 11:57:47.075495 , 0.104736328125 , 0.9130859375 , 0.528564453125 , 23.8402930403 , 34.485958486 , -85.3152625153 , -5.63049316406 , 5.19561767578 , -1.73187255859 
2018/05/16 11:57:47.367851 , 0.104736328125 , 0.9130859375 , 0.528564453125 , 23.8402930403 , 34.485958486 , -85.3152625153 , -5.63049316406 , 5.19561767578 , -1.73187255859 
2018/05/16 11:57:47.660322 , 0.104736328125 , 0.9130859375 , 0.528564453125 , 23.8402930403 , 34.485958486 , -85.3152625153 , -5.63049316406 , 5.19561767578 , -1.73187255859 
2018/05/16 11:57:47.952858 , 0.0244140625 , 0.862060546875 , 0.528564453125 , 22.9406593407 , 33.5863247863 , -86.2148962149 , -4.57000732422 , 4.76837158203 , 0.503540039062 
2018/05/16 11:57:48.245378 , 0.0244140625 , 0.862060546875 , 0.528564453125 , 22.9406593407 , 33.5863247863 , -86.2148962149 , -4.57000732422 , 4.76837158203 , 0.503540039062 
2018/05/16 11:57:48.537939 , 0.0244140625 , 0.862060546875 , 0.528564453125 , 22.9406593407 , 33.5863247863 , -86.2148962149 , -4.57000732422 , 4.76837158203 , 0.503540039062 
2018/05/16 11:57:48.830502 , 0.0244140625 , 0.862060546875 , 0.528564453125 , 23.9902319902 , 34.6358974359 , -84.7155067155 , -5.31005859375 , 4.59289550781 , -0.259399414062 
2018/05/16 11:57:49.122966 , 0.0517578125 , 0.91259765625 , 0.462890625 , 23.9902319902 , 34.6358974359 , -84.7155067155 , -5.31005859375 , 4.59289550781 , -0.259399414062 
2018/05/16 11:57:49.464136 , 0.0517578125 , 0.91259765625 , 0.462890625 , 23.9902319902 , 34.6358974359 , -84.7155067155 , -5.31005859375 , 4.59289550781 , -0.259399414062 
2018/05/16 11:57:49.756604 , 0.0517578125 , 0.91259765625 , 0.462890625 , 23.9902319902 , 34.6358974359 , -84.7155067155 , -5.03540039062 , 4.80651855469 , 0.617980957031 
2018/05/16 11:57:50.049129 , 0.0458984375 , 0.8701171875 , 0.5498046875 , 22.9406593407 , 32.5367521368 , -86.2148962149 , -5.03540039062 , 4.80651855469 , 0.617980957031 
2018/05/16 11:57:50.341614 , 0.0458984375 , 0.8701171875 , 0.5498046875 , 22.9406593407 , 32.5367521368 , -86.2148962149 , -5.03540039062 , 4.80651855469 , 0.617980957031 
2018/05/16 11:57:50.634234 , 0.0458984375 , 0.8701171875 , 0.5498046875 , 22.9406593407 , 32.5367521368 , -86.2148962149 , -5.03540039062 , 4.80651855469 , 0.617980957031 
2018/05/16 11:57:50.926592 , 0.005126953125 , 0.886474609375 , 0.571044921875 , 23.5404151404 , 33.1365079365 , -85.3152625153 , -4.24194335938 , 4.19616699219 , 0.778198242188 
2018/05/16 11:57:51.268022 , 0.005126953125 , 0.886474609375 , 0.571044921875 , 23.5404151404 , 33.1365079365 , -85.3152625153 , -4.24194335938 , 4.19616699219 , 0.778198242188 
2018/05/16 11:57:51.560417 , 0.005126953125 , 0.886474609375 , 0.571044921875 , 23.5404151404 , 33.1365079365 , -85.3152625153 , -4.24194335938 , 4.19616699219 , 0.778198242188 
2018/05/16 11:57:51.901814 , 0.03173828125 , 0.876953125 , 0.498291015625 , 23.5404151404 , 33.1365079365 , -85.3152625153 , -4.54711914062 , 3.44848632812 , -1.74713134766 
2018/05/16 11:57:52.194140 , 0.03173828125 , 0.876953125 , 0.498291015625 , 23.5404151404 , 33.1365079365 , -85.3152625153 , -4.54711914062 , 3.44848632812 , -1.74713134766 
2018/05/16 11:57:52.486609 , 0.03173828125 , 0.876953125 , 0.498291015625 , 23.5404151404 , 33.1365079365 , -85.3152625153 , -4.54711914062 , 3.44848632812 , -1.74713134766 
2018/05/16 11:57:52.779025 , 0.03173828125 , 0.876953125 , 0.498291015625 , 21.8910866911 , 34.6358974359 , -87.5643467643 , -4.05120849609 , 4.18090820312 , -0.274658203125 
2018/05/16 11:57:53.071663 , 0.049560546875 , 0.87158203125 , 0.5205078125 , 21.8910866911 , 34.6358974359 , -87.5643467643 , -4.05120849609 , 4.18090820312 , -0.274658203125 
2018/05/16 11:57:53.364104 , 0.049560546875 , 0.87158203125 , 0.5205078125 , 21.8910866911 , 34.6358974359 , -87.5643467643 , -4.05120849609 , 4.18090820312 , -0.274658203125 
2018/05/16 11:57:53.656559 , 0.049560546875 , 0.87158203125 , 0.5205078125 , 21.8910866911 , 34.6358974359 , -87.5643467643 , -4.05120849609 , 4.18090820312 , -0.274658203125 
2018/05/16 11:57:53.949104 , 0.03515625 , 0.8681640625 , 0.526611328125 , 21.8910866911 , 34.6358974359 , -87.5643467643 , -5.76782226562 , 4.150390625 , -0.808715820312 
2018/05/16 11:57:54.241614 , 0.03515625 , 0.8681640625 , 0.526611328125 , 21.8910866911 , 34.6358974359 , -87.5643467643 , -5.76782226562 , 4.150390625 , -0.808715820312 
2018/05/16 11:57:54.582857 , 0.03515625 , 0.8681640625 , 0.526611328125 , 21.8910866911 , 34.6358974359 , -87.5643467643 , -5.76782226562 , 4.150390625 , -0.808715820312 
2018/05/16 11:57:54.875319 , 0.0224609375 , 0.872802734375 , 0.5693359375 , 24.7399267399 , 33.5863247863 , -86.5147741148 , -5.2490234375 , 5.08117675781 , -1.08337402344 
2018/05/16 11:57:55.167907 , 0.0224609375 , 0.872802734375 , 0.5693359375 , 24.7399267399 , 33.5863247863 , -86.5147741148 , -5.2490234375 , 5.08117675781 , -1.08337402344 
2018/05/16 11:57:55.460323 , 0.0224609375 , 0.872802734375 , 0.5693359375 , 24.7399267399 , 33.5863247863 , -86.5147741148 , -5.2490234375 , 5.08117675781 , -1.08337402344 
2018/05/16 11:57:55.752832 , 0.0224609375 , 0.872802734375 , 0.5693359375 , 24.7399267399 , 33.5863247863 , -86.5147741148 , -4.7607421875 , 4.33349609375 , -0.640869140625 
2018/05/16 11:57:56.045342 , 0.014404296875 , 0.84814453125 , 0.543212890625 , 24.7399267399 , 33.5863247863 , -86.5147741148 , -4.7607421875 , 4.33349609375 , -0.640869140625 
2018/05/16 11:57:56.386577 , 0.014404296875 , 0.84814453125 , 0.543212890625 , 24.7399267399 , 33.5863247863 , -86.5147741148 , -4.7607421875 , 4.33349609375 , -0.640869140625 
2018/05/16 11:57:56.679045 , 0.014404296875 , 0.84814453125 , 0.543212890625 , 24.7399267399 , 33.5863247863 , -86.5147741148 , -4.54711914062 , 5.37109375 , -0.495910644531 
2018/05/16 11:57:57.020482 , -0.005615234375 , 0.8095703125 , 0.560791015625 , 23.0905982906 , 34.485958486 , -86.6647130647 , -4.54711914062 , 5.37109375 , -0.495910644531 
2018/05/16 11:57:57.313142 , -0.005615234375 , 0.8095703125 , 0.560791015625 , 23.0905982906 , 34.485958486 , -86.6647130647 , -4.54711914062 , 5.37109375 , -0.495910644531 
2018/05/16 11:57:57.654238 , -0.005615234375 , 0.8095703125 , 0.560791015625 , 23.0905982906 , 34.485958486 , -86.6647130647 , -4.54711914062 , 5.37109375 , -0.495910644531 
2018/05/16 11:57:57.946685 , -0.001953125 , 0.910400390625 , 0.47705078125 , 23.0905982906 , 34.485958486 , -86.6647130647 , -1.53350830078 , 2.30407714844 , 0.221252441406 
2018/05/16 11:57:58.239269 , -0.001953125 , 0.910400390625 , 0.47705078125 , 23.0905982906 , 34.485958486 , -86.6647130647 , -1.53350830078 , 2.30407714844 , 0.221252441406 
2018/05/16 11:57:58.531619 , -0.001953125 , 0.910400390625 , 0.47705078125 , 23.0905982906 , 34.485958486 , -86.6647130647 , -1.53350830078 , 2.30407714844 , 0.221252441406 
2018/05/16 11:57:58.824228 , -0.001953125 , 0.910400390625 , 0.47705078125 , 23.0905982906 , 34.485958486 , -86.6647130647 , -5.0048828125 , 4.86755371094 , -0.0991821289062 
2018/05/16 11:57:59.165613 , 0.049072265625 , 0.803466796875 , 0.544189453125 , 23.0905982906 , 34.485958486 , -86.6647130647 , -5.0048828125 , 4.86755371094 , -0.0991821289062 
2018/05/16 11:57:59.457898 , 0.049072265625 , 0.803466796875 , 0.544189453125 , 23.0905982906 , 34.485958486 , -86.6647130647 , -5.0048828125 , 4.86755371094 , -0.0991821289062 
2018/05/16 11:57:59.750478 , 0.049072265625 , 0.803466796875 , 0.544189453125 , 23.0905982906 , 34.485958486 , -86.6647130647 , -4.47845458984 , 4.79125976562 , -1.16729736328 
2018/05/16 11:58:00.043025 , 0.058837890625 , 0.823486328125 , 0.52392578125 , 24.1401709402 , 33.1365079365 , -86.6647130647 , -4.47845458984 , 4.79125976562 , -1.16729736328 
2018/05/16 11:58:00.335463 , 0.058837890625 , 0.823486328125 , 0.52392578125 , 24.1401709402 , 33.1365079365 , -86.6647130647 , -4.47845458984 , 4.79125976562 , -1.16729736328 
2018/05/16 11:58:00.627957 , 0.058837890625 , 0.823486328125 , 0.52392578125 , 24.1401709402 , 33.1365079365 , -86.6647130647 , -4.47845458984 , 4.79125976562 , -1.16729736328 
2018/05/16 11:58:00.920435 , 0.00927734375 , 0.8427734375 , 0.5556640625 , 24.1401709402 , 33.7362637363 , -85.915018315 , -2.73132324219 , 4.150390625 , 0.724792480469 
2018/05/16 11:58:01.261716 , 0.00927734375 , 0.8427734375 , 0.5556640625 , 24.1401709402 , 33.7362637363 , -85.915018315 , -2.73132324219 , 4.150390625 , 0.724792480469 
2018/05/16 11:58:01.554221 , 0.00927734375 , 0.8427734375 , 0.5556640625 , 24.1401709402 , 33.7362637363 , -85.915018315 , -2.73132324219 , 4.150390625 , 0.724792480469 
2018/05/16 11:58:01.846622 , 0.00927734375 , 0.8427734375 , 0.5556640625 , 24.1401709402 , 33.7362637363 , -85.915018315 , -5.36346435547 , 4.05120849609 , 0.541687011719 
2018/05/16 11:58:02.139207 , 0.052978515625 , 0.87744140625 , 0.5517578125 , 24.1401709402 , 33.7362637363 , -85.915018315 , -5.36346435547 , 4.05120849609 , 0.541687011719 
2018/05/16 11:58:02.431829 , 0.052978515625 , 0.87744140625 , 0.5517578125 , 24.1401709402 , 33.7362637363 , -85.915018315 , -5.36346435547 , 4.05120849609 , 0.541687011719 
2018/05/16 11:58:02.772988 , 0.052978515625 , 0.87744140625 , 0.5517578125 , 24.1401709402 , 33.7362637363 , -85.915018315 , -4.34875488281 , 4.07409667969 , 0.473022460938 
2018/05/16 11:58:03.065956 , 0.052490234375 , 0.88134765625 , 0.511474609375 , 24.1401709402 , 33.7362637363 , -85.915018315 , -4.34875488281 , 4.07409667969 , 0.473022460938 
2018/05/16 11:58:03.406797 , 0.052490234375 , 0.88134765625 , 0.511474609375 , 24.1401709402 , 33.7362637363 , -85.915018315 , -4.34875488281 , 4.07409667969 , 0.473022460938 
2018/05/16 11:58:03.699292 , 0.052490234375 , 0.88134765625 , 0.511474609375 , 24.1401709402 , 33.7362637363 , -85.915018315 , -4.01306152344 , 5.13458251953 , -2.15148925781 
2018/05/16 11:58:03.991756 , 0.023193359375 , 0.8818359375 , 0.519775390625 , 23.2405372405 , 34.336019536 , -86.8146520147 , -4.01306152344 , 5.13458251953 , -2.15148925781 
2018/05/16 11:58:04.284260 , 0.023193359375 , 0.8818359375 , 0.519775390625 , 23.2405372405 , 34.336019536 , -86.8146520147 , -4.01306152344 , 5.13458251953 , -2.15148925781 
2018/05/16 11:58:04.576744 , 0.023193359375 , 0.8818359375 , 0.519775390625 , 23.2405372405 , 34.336019536 , -86.8146520147 , -4.01306152344 , 5.13458251953 , -2.15148925781 
2018/05/16 11:58:04.869247 , 0.023193359375 , 0.8818359375 , 0.519775390625 , 24.1401709402 , 33.7362637363 , -85.6151404151 , -1.36566162109 , 4.24194335938 , 0.205993652344 
2018/05/16 11:58:05.161677 , -0.011962890625 , 0.88623046875 , 0.495849609375 , 24.1401709402 , 33.7362637363 , -85.6151404151 , -1.36566162109 , 4.24194335938 , 0.205993652344 
2018/05/16 11:58:05.454253 , -0.011962890625 , 0.88623046875 , 0.495849609375 , 24.1401709402 , 33.7362637363 , -85.6151404151 , -1.36566162109 , 4.24194335938 , 0.205993652344 
2018/05/16 11:58:05.746637 , -0.011962890625 , 0.88623046875 , 0.495849609375 , 24.1401709402 , 33.7362637363 , -85.6151404151 , -5.90515136719 , 3.46374511719 , 0.144958496094 
2018/05/16 11:58:06.039177 , 0.030517578125 , 0.9091796875 , 0.509521484375 , 22.4908424908 , 34.485958486 , -86.6647130647 , -5.90515136719 , 3.46374511719 , 0.144958496094 
2018/05/16 11:58:06.331727 , 0.030517578125 , 0.9091796875 , 0.509521484375 , 22.4908424908 , 34.485958486 , -86.6647130647 , -5.90515136719 , 3.46374511719 , 0.144958496094 
2018/05/16 11:58:06.624219 , 0.030517578125 , 0.9091796875 , 0.509521484375 , 22.4908424908 , 34.485958486 , -86.6647130647 , -5.90515136719 , 3.46374511719 , 0.144958496094 
2018/05/16 11:58:06.965391 , 0.05712890625 , 0.8984375 , 0.528076171875 , 23.2405372405 , 33.5863247863 , -86.5147741148 , -5.11932373047 , 5.77545166016 , 0.0 
2018/05/16 11:58:07.258071 , 0.05712890625 , 0.8984375 , 0.528076171875 , 23.2405372405 , 33.5863247863 , -86.5147741148 , -5.11932373047 , 5.77545166016 , 0.0 
2018/05/16 11:58:07.550443 , 0.05712890625 , 0.8984375 , 0.528076171875 , 23.2405372405 , 33.5863247863 , -86.5147741148 , -5.11932373047 , 5.77545166016 , 0.0 
2018/05/16 11:58:07.891677 , 0.033203125 , 0.857421875 , 0.551025390625 , 23.8402930403 , 33.4363858364 , -84.5655677656 , -5.60760498047 , 4.72259521484 , -1.86157226562 
2018/05/16 11:58:08.233086 , 0.033203125 , 0.857421875 , 0.551025390625 , 23.8402930403 , 33.4363858364 , -84.5655677656 , -5.60760498047 , 4.72259521484 , -1.86157226562 
2018/05/16 11:58:08.525457 , 0.033203125 , 0.857421875 , 0.551025390625 , 23.8402930403 , 33.4363858364 , -84.5655677656 , -5.60760498047 , 4.72259521484 , -1.86157226562 
2018/05/16 11:58:08.866927 , 0.033203125 , 0.857421875 , 0.551025390625 , 25.3396825397 , 34.6358974359 , -84.7155067155 , -5.72204589844 , 4.47845458984 , -0.42724609375 
2018/05/16 11:58:09.159178 , -0.003662109375 , 0.896240234375 , 0.5322265625 , 25.3396825397 , 34.6358974359 , -84.7155067155 , -5.72204589844 , 4.47845458984 , -0.42724609375 
2018/05/16 11:58:09.451684 , -0.003662109375 , 0.896240234375 , 0.5322265625 , 25.3396825397 , 34.6358974359 , -84.7155067155 , -5.72204589844 , 4.47845458984 , -0.42724609375 
2018/05/16 11:58:09.744201 , -0.003662109375 , 0.896240234375 , 0.5322265625 , 24.58998779 , 32.6866910867 , -85.915018315 , -4.97436523438 , 4.59289550781 , -1.74713134766 
2018/05/16 11:58:10.085486 , 0.005859375 , 0.84814453125 , 0.5078125 , 24.58998779 , 32.6866910867 , -85.915018315 , -4.97436523438 , 4.59289550781 , -1.74713134766 
2018/05/16 11:58:10.377942 , 0.005859375 , 0.84814453125 , 0.5078125 , 24.58998779 , 32.6866910867 , -85.915018315 , -4.97436523438 , 4.59289550781 , -1.74713134766 
2018/05/16 11:58:10.670509 , 0.005859375 , 0.84814453125 , 0.5078125 , 24.58998779 , 32.6866910867 , -85.915018315 , -4.97436523438 , 4.59289550781 , -1.74713134766 
2018/05/16 11:58:10.962922 , 0.0546875 , 0.88720703125 , 0.5029296875 , 23.8402930403 , 35.2356532357 , -86.6647130647 , -4.41741943359 , 6.34765625 , -1.37329101562 
2018/05/16 11:58:11.255521 , 0.0546875 , 0.88720703125 , 0.5029296875 , 23.8402930403 , 35.2356532357 , -86.6647130647 , -4.41741943359 , 6.34765625 , -1.37329101562 
2018/05/16 11:58:11.548084 , 0.0546875 , 0.88720703125 , 0.5029296875 , 23.8402930403 , 35.2356532357 , -86.6647130647 , -4.41741943359 , 6.34765625 , -1.37329101562 
2018/05/16 11:58:11.840498 , 0.0546875 , 0.88720703125 , 0.5029296875 , 22.7907203907 , 34.485958486 , -86.6647130647 , -4.05120849609 , 6.62994384766 , 0.831604003906 
2018/05/16 11:58:12.133017 , 0.07861328125 , 0.886962890625 , 0.521484375 , 22.7907203907 , 34.485958486 , -86.6647130647 , -4.05120849609 , 6.62994384766 , 0.831604003906 
2018/05/16 11:58:12.425515 , 0.07861328125 , 0.886962890625 , 0.521484375 , 22.7907203907 , 34.485958486 , -86.6647130647 , -4.05120849609 , 6.62994384766 , 0.831604003906 
2018/05/16 11:58:12.718087 , 0.07861328125 , 0.886962890625 , 0.521484375 , 22.7907203907 , 34.485958486 , -86.6647130647 , -4.43267822266 , 5.57708740234 , -1.26647949219 
2018/05/16 11:58:13.059392 , 0.0419921875 , 0.8447265625 , 0.47802734375 , 23.8402930403 , 34.1860805861 , -85.3152625153 , -4.43267822266 , 5.57708740234 , -1.26647949219 
2018/05/16 11:58:13.351739 , 0.0419921875 , 0.8447265625 , 0.47802734375 , 23.8402930403 , 34.1860805861 , -85.3152625153 , -4.43267822266 , 5.57708740234 , -1.26647949219 
2018/05/16 11:58:13.644251 , 0.0419921875 , 0.8447265625 , 0.47802734375 , 23.8402930403 , 34.1860805861 , -85.3152625153 , -5.63049316406 , 6.24847412109 , 0.946044921875 
2018/05/16 11:58:13.985616 , 0.069580078125 , 0.92431640625 , 0.541015625 , 22.6407814408 , 33.8862026862 , -86.2148962149 , -5.63049316406 , 6.24847412109 , 0.946044921875 
2018/05/16 11:58:14.278157 , 0.069580078125 , 0.92431640625 , 0.541015625 , 22.6407814408 , 33.8862026862 , -86.2148962149 , -5.63049316406 , 6.24847412109 , 0.946044921875 
2018/05/16 11:58:14.570598 , 0.069580078125 , 0.92431640625 , 0.541015625 , 22.6407814408 , 33.8862026862 , -86.2148962149 , -5.63049316406 , 6.24847412109 , 0.946044921875 
2018/05/16 11:58:14.862995 , 0.069580078125 , 0.92431640625 , 0.541015625 , 21.8910866911 , 35.6854700855 , -83.8158730159 , -4.19616699219 , 4.43267822266 , -0.717163085938 
2018/05/16 11:58:15.155568 , 0.054443359375 , 0.880615234375 , 0.54150390625 , 21.8910866911 , 35.6854700855 , -83.8158730159 , -4.19616699219 , 4.43267822266 , -0.717163085938 
2018/05/16 11:58:15.448033 , 0.054443359375 , 0.880615234375 , 0.54150390625 , 21.8910866911 , 35.6854700855 , -83.8158730159 , -4.19616699219 , 4.43267822266 , -0.717163085938 
2018/05/16 11:58:15.740542 , 0.054443359375 , 0.880615234375 , 0.54150390625 , 21.8910866911 , 35.6854700855 , -83.8158730159 , -4.08172607422 , 5.22613525391 , 0.091552734375 
2018/05/16 11:58:16.033074 , 0.031982421875 , 0.84228515625 , 0.5244140625 , 22.4908424908 , 34.7858363858 , -85.6151404151 , -4.08172607422 , 5.22613525391 , 0.091552734375 
2018/05/16 11:58:16.325577 , 0.031982421875 , 0.84228515625 , 0.5244140625 , 22.4908424908 , 34.7858363858 , -85.6151404151 , -4.08172607422 , 5.22613525391 , 0.091552734375 
2018/05/16 11:58:16.618039 , 0.031982421875 , 0.84228515625 , 0.5244140625 , 22.4908424908 , 34.7858363858 , -85.6151404151 , -4.08172607422 , 5.22613525391 , 0.091552734375 
2018/05/16 11:58:16.910550 , 0.031982421875 , 0.869384765625 , 0.55908203125 , 23.2405372405 , 33.5863247863 , -86.5147741148 , -4.49371337891 , 4.70733642578 , 0.106811523438 
2018/05/16 11:58:17.203091 , 0.031982421875 , 0.869384765625 , 0.55908203125 , 23.2405372405 , 33.5863247863 , -86.5147741148 , -4.49371337891 , 4.70733642578 , 0.106811523438 
2018/05/16 11:58:17.495514 , 0.031982421875 , 0.869384765625 , 0.55908203125 , 23.2405372405 , 33.5863247863 , -86.5147741148 , -4.49371337891 , 4.70733642578 , 0.106811523438 
2018/05/16 11:58:17.788099 , 0.031982421875 , 0.869384765625 , 0.55908203125 , 24.8898656899 , 34.1860805861 , -85.3152625153 , -5.77545166016 , 5.99670410156 , -1.28936767578 
2018/05/16 11:58:18.178055 , 0.052490234375 , 0.952392578125 , 0.5693359375 , 24.8898656899 , 34.1860805861 , -85.3152625153 , -5.77545166016 , 5.99670410156 , -1.28936767578 
2018/05/16 11:58:18.470543 , 0.052490234375 , 0.952392578125 , 0.5693359375 , 24.8898656899 , 34.1860805861 , -85.3152625153 , -5.77545166016 , 5.99670410156 , -1.28936767578 
2018/05/16 11:58:18.763158 , 0.052490234375 , 0.952392578125 , 0.5693359375 , 24.8898656899 , 34.1860805861 , -85.3152625153 , -5.80596923828 , 5.91278076172 , 0.518798828125 
2018/05/16 11:58:19.055832 , 0.0224609375 , 0.93017578125 , 0.571533203125 , 24.2901098901 , 33.2864468864 , -85.7650793651 , -5.80596923828 , 5.91278076172 , 0.518798828125 
2018/05/16 11:58:19.348081 , 0.0224609375 , 0.93017578125 , 0.571533203125 , 24.2901098901 , 33.2864468864 , -85.7650793651 , -5.80596923828 , 5.91278076172 , 0.518798828125 
2018/05/16 11:58:19.640622 , 0.0224609375 , 0.93017578125 , 0.571533203125 , 24.2901098901 , 33.2864468864 , -85.7650793651 , -5.80596923828 , 5.91278076172 , 0.518798828125 
2018/05/16 11:58:19.933139 , 0.01416015625 , 0.89306640625 , 0.559814453125 , 23.5404151404 , 33.7362637363 , -85.0153846154 , -5.50079345703 , 6.69097900391 , -1.04522705078 
2018/05/16 11:58:20.225594 , 0.01416015625 , 0.89306640625 , 0.559814453125 , 23.5404151404 , 33.7362637363 , -85.0153846154 , -5.50079345703 , 6.69097900391 , -1.04522705078 
2018/05/16 11:58:20.518032 , 0.01416015625 , 0.89306640625 , 0.559814453125 , 23.5404151404 , 33.7362637363 , -85.0153846154 , -5.50079345703 , 6.69097900391 , -1.04522705078 
2018/05/16 11:58:20.810541 , 0.01416015625 , 0.89306640625 , 0.559814453125 , 23.5404151404 , 33.1365079365 , -86.6647130647 , -5.79071044922 , 3.46374511719 , -3.00598144531 
2018/05/16 11:58:21.103089 , 0.0478515625 , 0.845703125 , 0.54638671875 , 23.5404151404 , 33.1365079365 , -86.6647130647 , -5.79071044922 , 3.46374511719 , -3.00598144531 
2018/05/16 11:58:21.395483 , 0.0478515625 , 0.845703125 , 0.54638671875 , 23.5404151404 , 33.1365079365 , -86.6647130647 , -5.79071044922 , 3.46374511719 , -3.00598144531 
2018/05/16 11:58:21.688049 , 0.0478515625 , 0.845703125 , 0.54638671875 , 23.5404151404 , 33.1365079365 , -86.6647130647 , -3.86047363281 , 6.12640380859 , 0.953674316406 
2018/05/16 11:58:21.980502 , -0.0107421875 , 0.817138671875 , 0.506591796875 , 22.7907203907 , 34.7858363858 , -86.3648351648 , -3.86047363281 , 6.12640380859 , 0.953674316406 
2018/05/16 11:58:22.273092 , -0.0107421875 , 0.817138671875 , 0.506591796875 , 22.7907203907 , 34.7858363858 , -86.3648351648 , -3.86047363281 , 6.12640380859 , 0.953674316406 
2018/05/16 11:58:22.565525 , -0.0107421875 , 0.817138671875 , 0.506591796875 , 22.7907203907 , 34.7858363858 , -86.3648351648 , -3.86047363281 , 6.12640380859 , 0.953674316406 
2018/05/16 11:58:22.858018 , -0.0107421875 , 0.817138671875 , 0.506591796875 , 24.2901098901 , 33.5863247863 , -86.8146520147 , -6.52313232422 , 5.43212890625 , -1.17492675781 
2018/05/16 11:58:23.150542 , 0.053955078125 , 0.85546875 , 0.536376953125 , 24.2901098901 , 33.5863247863 , -86.8146520147 , -6.52313232422 , 5.43212890625 , -1.17492675781 
2018/05/16 11:58:23.443022 , 0.053955078125 , 0.85546875 , 0.536376953125 , 24.2901098901 , 33.5863247863 , -86.8146520147 , -6.52313232422 , 5.43212890625 , -1.17492675781 
2018/05/16 11:58:23.735575 , 0.053955078125 , 0.85546875 , 0.536376953125 , 24.2901098901 , 33.5863247863 , -86.8146520147 , -4.50897216797 , 4.24194335938 , -0.579833984375 
2018/05/16 11:58:24.028219 , -0.0087890625 , 0.9189453125 , 0.52392578125 , 24.1401709402 , 34.485958486 , -86.3648351648 , -4.50897216797 , 4.24194335938 , -0.579833984375 
2018/05/16 11:58:24.320579 , -0.0087890625 , 0.9189453125 , 0.52392578125 , 24.1401709402 , 34.485958486 , -86.3648351648 , -4.50897216797 , 4.24194335938 , -0.579833984375 
2018/05/16 11:58:24.661773 , -0.0087890625 , 0.9189453125 , 0.52392578125 , 24.1401709402 , 34.485958486 , -86.3648351648 , -4.50897216797 , 4.24194335938 , -0.579833984375 
2018/05/16 11:58:24.954333 , 0.0068359375 , 0.88134765625 , 0.505615234375 , 23.5404151404 , 35.8354090354 , -85.6151404151 , -5.26428222656 , 6.58416748047 , -0.350952148438 
2018/05/16 11:58:25.246890 , 0.0068359375 , 0.88134765625 , 0.505615234375 , 23.5404151404 , 35.8354090354 , -85.6151404151 , -5.26428222656 , 6.58416748047 , -0.350952148438 
2018/05/16 11:58:25.539379 , 0.0068359375 , 0.88134765625 , 0.505615234375 , 23.5404151404 , 35.8354090354 , -85.6151404151 , -5.26428222656 , 6.58416748047 , -0.350952148438 
2018/05/16 11:58:25.929574 , 0.01416015625 , 0.89599609375 , 0.508544921875 , 25.0398046398 , 32.8366300366 , -85.4652014652 , -4.24957275391 , 6.05010986328 , -0.473022460938 
2018/05/16 11:58:26.221855 , 0.01416015625 , 0.89599609375 , 0.508544921875 , 25.0398046398 , 32.8366300366 , -85.4652014652 , -4.24957275391 , 6.05010986328 , -0.473022460938 
2018/05/16 11:58:26.514462 , 0.01416015625 , 0.89599609375 , 0.508544921875 , 25.0398046398 , 32.8366300366 , -85.4652014652 , -4.24957275391 , 6.05010986328 , -0.473022460938 
2018/05/16 11:58:26.806877 , 0.01416015625 , 0.89599609375 , 0.508544921875 , 22.9406593407 , 34.6358974359 , -85.7650793651 , -4.86755371094 , 4.44793701172 , 0.778198242188 
2018/05/16 11:58:27.099369 , 0.00732421875 , 0.87353515625 , 0.530517578125 , 22.9406593407 , 34.6358974359 , -85.7650793651 , -4.86755371094 , 4.44793701172 , 0.778198242188 
2018/05/16 11:58:27.391867 , 0.00732421875 , 0.87353515625 , 0.530517578125 , 22.9406593407 , 34.6358974359 , -85.7650793651 , -4.86755371094 , 4.44793701172 , 0.778198242188 
2018/05/16 11:58:27.684440 , 0.00732421875 , 0.87353515625 , 0.530517578125 , 22.9406593407 , 34.6358974359 , -85.7650793651 , -4.67681884766 , 4.70733642578 , -0.144958496094 
2018/05/16 11:58:28.025746 , 0.0224609375 , 0.82275390625 , 0.5126953125 , 25.0398046398 , 34.9357753358 , -85.1653235653 , -4.67681884766 , 4.70733642578 , -0.144958496094 
2018/05/16 11:58:28.318257 , 0.0224609375 , 0.82275390625 , 0.5126953125 , 25.0398046398 , 34.9357753358 , -85.1653235653 , -4.67681884766 , 4.70733642578 , -0.144958496094 
2018/05/16 11:58:28.610615 , 0.0224609375 , 0.82275390625 , 0.5126953125 , 25.0398046398 , 34.9357753358 , -85.1653235653 , -4.67681884766 , 4.70733642578 , -0.144958496094 
2018/05/16 11:58:28.903097 , -0.0087890625 , 0.8349609375 , 0.537109375 , 24.1401709402 , 33.7362637363 , -87.7142857143 , -4.8828125 , 5.99670410156 , -2.17437744141 
2018/05/16 11:58:29.195608 , -0.0087890625 , 0.8349609375 , 0.537109375 , 24.1401709402 , 33.7362637363 , -87.7142857143 , -4.8828125 , 5.99670410156 , -2.17437744141 
2018/05/16 11:58:29.488103 , -0.0087890625 , 0.8349609375 , 0.537109375 , 24.1401709402 , 33.7362637363 , -87.7142857143 , -4.8828125 , 5.99670410156 , -2.17437744141 
2018/05/16 11:58:29.780632 , -0.0087890625 , 0.8349609375 , 0.537109375 , 24.1401709402 , 34.1860805861 , -85.6151404151 , -6.41632080078 , 3.20434570312 , -0.740051269531 
2018/05/16 11:58:30.121881 , -0.031005859375 , 0.856201171875 , 0.520263671875 , 24.1401709402 , 34.1860805861 , -85.6151404151 , -6.41632080078 , 3.20434570312 , -0.740051269531 
2018/05/16 11:58:30.414601 , -0.031005859375 , 0.856201171875 , 0.520263671875 , 24.1401709402 , 34.1860805861 , -85.6151404151 , -6.41632080078 , 3.20434570312 , -0.740051269531 
2018/05/16 11:58:30.755690 , -0.031005859375 , 0.856201171875 , 0.520263671875 , 24.1401709402 , 34.1860805861 , -85.6151404151 , -3.16619873047 , 2.24304199219 , -1.18255615234 
2018/05/16 11:58:31.048238 , 0.01953125 , 0.891357421875 , 0.561767578125 , 22.190964591 , 35.3855921856 , -85.1653235653 , -3.16619873047 , 2.24304199219 , -1.18255615234 
2018/05/16 11:58:31.389394 , 0.01953125 , 0.891357421875 , 0.561767578125 , 22.190964591 , 35.3855921856 , -85.1653235653 , -3.16619873047 , 2.24304199219 , -1.18255615234 
2018/05/16 11:58:31.681900 , 0.01953125 , 0.891357421875 , 0.561767578125 , 22.190964591 , 35.3855921856 , -85.1653235653 , -2.67791748047 , 4.98962402344 , -0.030517578125 
2018/05/16 11:58:31.974594 , 0.072021484375 , 0.885498046875 , 0.5458984375 , 22.7907203907 , 33.4363858364 , -85.3152625153 , -2.67791748047 , 4.98962402344 , -0.030517578125 
2018/05/16 11:58:32.266892 , 0.072021484375 , 0.885498046875 , 0.5458984375 , 22.7907203907 , 33.4363858364 , -85.3152625153 , -2.67791748047 , 4.98962402344 , -0.030517578125 
2018/05/16 11:58:32.559366 , 0.072021484375 , 0.885498046875 , 0.5458984375 , 22.7907203907 , 33.4363858364 , -85.3152625153 , -2.67791748047 , 4.98962402344 , -0.030517578125 
2018/05/16 11:58:32.851881 , 0.072021484375 , 0.885498046875 , 0.5458984375 , 22.7907203907 , 33.4363858364 , -85.3152625153 , -4.36401367188 , 4.78363037109 , -1.71661376953 
2018/05/16 11:58:33.144379 , 0.00390625 , 0.887451171875 , 0.573486328125 , 22.7907203907 , 33.4363858364 , -85.3152625153 , -4.36401367188 , 4.78363037109 , -1.71661376953 
2018/05/16 11:58:33.436847 , 0.00390625 , 0.887451171875 , 0.573486328125 , 22.7907203907 , 33.4363858364 , -85.3152625153 , -4.36401367188 , 4.78363037109 , -1.71661376953 
2018/05/16 11:58:33.729395 , 0.00390625 , 0.887451171875 , 0.573486328125 , 22.7907203907 , 33.4363858364 , -85.3152625153 , -2.75421142578 , 3.33404541016 , 1.708984375 
2018/05/16 11:58:34.021868 , 0.028076171875 , 0.89990234375 , 0.56103515625 , 22.6407814408 , 32.8366300366 , -86.5147741148 , -2.75421142578 , 3.33404541016 , 1.708984375 
2018/05/16 11:58:34.363193 , 0.028076171875 , 0.89990234375 , 0.56103515625 , 22.6407814408 , 32.8366300366 , -86.5147741148 , -2.75421142578 , 3.33404541016 , 1.708984375 
2018/05/16 11:58:34.705377 , 0.028076171875 , 0.89990234375 , 0.56103515625 , 22.6407814408 , 32.8366300366 , -86.5147741148 , -4.91333007812 , 5.50079345703 , -1.33514404297 
2018/05/16 11:58:34.997079 , 0.03662109375 , 0.899658203125 , 0.5087890625 , 22.6407814408 , 32.8366300366 , -86.5147741148 , -4.91333007812 , 5.50079345703 , -1.33514404297 
2018/05/16 11:58:35.338235 , 0.03662109375 , 0.899658203125 , 0.5087890625 , 22.6407814408 , 32.8366300366 , -86.5147741148 , -4.91333007812 , 5.50079345703 , -1.33514404297 
2018/05/16 11:58:35.630621 , 0.03662109375 , 0.899658203125 , 0.5087890625 , 22.6407814408 , 32.8366300366 , -86.5147741148 , -4.91333007812 , 5.50079345703 , -1.33514404297 
2018/05/16 11:58:35.923073 , 0.0322265625 , 0.822998046875 , 0.53173828125 , 22.6407814408 , 32.8366300366 , -86.5147741148 , -6.11877441406 , 5.18035888672 , -0.617980957031 
2018/05/16 11:58:36.264462 , 0.0322265625 , 0.822998046875 , 0.53173828125 , 22.6407814408 , 32.8366300366 , -86.5147741148 , -6.11877441406 , 5.18035888672 , -0.617980957031 
2018/05/16 11:58:36.605549 , 0.0322265625 , 0.822998046875 , 0.53173828125 , 22.6407814408 , 32.8366300366 , -86.5147741148 , -6.11877441406 , 5.18035888672 , -0.617980957031 
2018/05/16 11:58:36.898031 , 0.040283203125 , 0.818359375 , 0.523681640625 , 22.6407814408 , 32.8366300366 , -86.5147741148 , -3.72314453125 , 5.69915771484 , 0.144958496094 
2018/05/16 11:58:37.239425 , 0.040283203125 , 0.818359375 , 0.523681640625 , 22.6407814408 , 32.8366300366 , -86.5147741148 , -3.72314453125 , 5.69915771484 , 0.144958496094 
2018/05/16 11:58:37.531820 , 0.040283203125 , 0.818359375 , 0.523681640625 , 22.6407814408 , 32.8366300366 , -86.5147741148 , -3.72314453125 , 5.69915771484 , 0.144958496094 
2018/05/16 11:58:37.921246 , 0.03271484375 , 0.897216796875 , 0.525634765625 , 22.7907203907 , 32.3868131868 , -86.3648351648 , -3.21197509766 , 5.77545166016 , -1.54113769531 
2018/05/16 11:58:38.263070 , 0.03271484375 , 0.897216796875 , 0.525634765625 , 22.7907203907 , 32.3868131868 , -86.3648351648 , -3.21197509766 , 5.77545166016 , -1.54113769531 
2018/05/16 11:58:38.555515 , 0.03271484375 , 0.897216796875 , 0.525634765625 , 22.7907203907 , 32.3868131868 , -86.3648351648 , -3.21197509766 , 5.77545166016 , -1.54113769531 
2018/05/16 11:58:38.848061 , 0.048828125 , 0.9130859375 , 0.55908203125 , 22.7907203907 , 32.3868131868 , -86.3648351648 , -5.02014160156 , 6.72912597656 , 0.762939453125 
2018/05/16 11:58:39.189478 , 0.048828125 , 0.9130859375 , 0.55908203125 , 22.7907203907 , 32.3868131868 , -86.3648351648 , -5.02014160156 , 6.72912597656 , 0.762939453125 
2018/05/16 11:58:39.482106 , 0.048828125 , 0.9130859375 , 0.55908203125 , 22.7907203907 , 32.3868131868 , -86.3648351648 , -5.02014160156 , 6.72912597656 , 0.762939453125 
2018/05/16 11:58:39.920704 , 0.020751953125 , 0.864013671875 , 0.520751953125 , 22.7907203907 , 32.3868131868 , -86.3648351648 , -3.86810302734 , 7.72857666016 , -0.0991821289062 
2018/05/16 11:58:40.213119 , 0.020751953125 , 0.864013671875 , 0.520751953125 , 22.7907203907 , 32.3868131868 , -86.3648351648 , -3.86810302734 , 7.72857666016 , -0.0991821289062 
2018/05/16 11:58:40.505588 , 0.020751953125 , 0.864013671875 , 0.520751953125 , 22.7907203907 , 32.3868131868 , -86.3648351648 , -3.86810302734 , 7.72857666016 , -0.0991821289062 
2018/05/16 11:58:40.798350 , 0.020751953125 , 0.864013671875 , 0.520751953125 , 22.6407814408 , 33.2864468864 , -85.4652014652 , -4.21905517578 , 5.54656982422 , -1.80816650391 
2018/05/16 11:58:41.090757 , 0.056396484375 , 0.846923828125 , 0.531982421875 , 22.6407814408 , 33.2864468864 , -85.4652014652 , -4.21905517578 , 5.54656982422 , -1.80816650391 
2018/05/16 11:58:41.383068 , 0.056396484375 , 0.846923828125 , 0.531982421875 , 22.6407814408 , 33.2864468864 , -85.4652014652 , -4.21905517578 , 5.54656982422 , -1.80816650391 
2018/05/16 11:58:41.724296 , 0.056396484375 , 0.846923828125 , 0.531982421875 , 22.6407814408 , 33.2864468864 , -85.4652014652 , -3.24249267578 , 4.41741943359 , 0.343322753906 
2018/05/16 12:15:52.992855 , 0.05712890625 , 0.865478515625 , 0.501708984375 , 22.6407814408 , 33.8862026862 , -85.4652014652 , -3.24249267578 , 4.41741943359 , 0.343322753906 
2018/05/16 12:15:53.285333 , 0.05712890625 , 0.865478515625 , 0.501708984375 , 22.6407814408 , 33.8862026862 , -85.4652014652 , -3.24249267578 , 4.41741943359 , 0.343322753906 
2018/05/16 12:15:53.577716 , 0.05712890625 , 0.865478515625 , 0.501708984375 , 22.6407814408 , 33.8862026862 , -85.4652014652 , -3.24249267578 , 4.41741943359 , 0.343322753906 
2018/05/16 12:15:53.870342 , 0.044921875 , 0.844482421875 , 0.547119140625 , 22.6407814408 , 33.8862026862 , -85.4652014652 , -3.36456298828 , 4.60815429688 , 0.06103515625 
2018/05/16 12:15:54.211616 , 0.044921875 , 0.844482421875 , 0.547119140625 , 22.6407814408 , 33.8862026862 , -85.4652014652 , -3.36456298828 , 4.60815429688 , 0.06103515625 
2018/05/16 12:15:54.504017 , 0.044921875 , 0.844482421875 , 0.547119140625 , 22.6407814408 , 33.8862026862 , -85.4652014652 , -3.36456298828 , 4.60815429688 , 0.06103515625 
2018/05/16 12:15:54.845242 , 0.044921875 , 0.844482421875 , 0.547119140625 , 22.6407814408 , 33.8862026862 , -85.4652014652 , -4.36401367188 , 5.04302978516 , 0.892639160156 
2018/05/16 12:15:55.137873 , -0.03466796875 , 0.875 , 0.55078125 , 22.6407814408 , 33.8862026862 , -85.4652014652 , -4.36401367188 , 5.04302978516 , 0.892639160156 
2018/05/16 12:15:55.430249 , -0.03466796875 , 0.875 , 0.55078125 , 22.6407814408 , 33.8862026862 , -85.4652014652 , -4.36401367188 , 5.04302978516 , 0.892639160156 
2018/05/16 12:15:55.723018 , -0.03466796875 , 0.875 , 0.55078125 , 22.6407814408 , 33.8862026862 , -85.4652014652 , -6.04248046875 , 4.89044189453 , 1.26647949219 
2018/05/16 12:15:56.064274 , 0.09912109375 , 0.88427734375 , 0.5126953125 , 23.5404151404 , 33.4363858364 , -85.3152625153 , -6.04248046875 , 4.89044189453 , 1.26647949219 
2018/05/16 12:15:56.356662 , 0.09912109375 , 0.88427734375 , 0.5126953125 , 23.5404151404 , 33.4363858364 , -85.3152625153 , -6.04248046875 , 4.89044189453 , 1.26647949219 
2018/05/16 12:15:56.649082 , 0.09912109375 , 0.88427734375 , 0.5126953125 , 23.5404151404 , 33.4363858364 , -85.3152625153 , -3.35693359375 , 5.01251220703 , 0.152587890625 
2018/05/16 12:15:56.990306 , -0.005615234375 , 0.87060546875 , 0.515869140625 , 23.0905982906 , 33.4363858364 , -85.6151404151 , -3.35693359375 , 5.01251220703 , 0.152587890625 
2018/05/16 12:15:57.282826 , -0.005615234375 , 0.87060546875 , 0.515869140625 , 23.0905982906 , 33.4363858364 , -85.6151404151 , -3.35693359375 , 5.01251220703 , 0.152587890625 
2018/05/16 12:15:57.575285 , -0.005615234375 , 0.87060546875 , 0.515869140625 , 23.0905982906 , 33.4363858364 , -85.6151404151 , -3.35693359375 , 5.01251220703 , 0.152587890625 
2018/05/16 12:15:57.867787 , 0.055419921875 , 0.88330078125 , 0.4951171875 , 23.5404151404 , 31.3372405372 , -86.3648351648 , -3.02124023438 , 5.90515136719 , -0.236511230469 
2018/05/16 12:15:58.160292 , 0.055419921875 , 0.88330078125 , 0.4951171875 , 23.5404151404 , 31.3372405372 , -86.3648351648 , -3.02124023438 , 5.90515136719 , -0.236511230469 
2018/05/16 12:15:58.452886 , 0.055419921875 , 0.88330078125 , 0.4951171875 , 23.5404151404 , 31.3372405372 , -86.3648351648 , -3.02124023438 , 5.90515136719 , -0.236511230469 
2018/05/16 12:15:58.842838 , 0.055419921875 , 0.88330078125 , 0.4951171875 , 23.8402930403 , 33.1365079365 , -83.9658119658 , -6.591796875 , 5.22613525391 , -2.11334228516 
2018/05/16 12:15:59.135468 , 0.010498046875 , 0.843994140625 , 0.529541015625 , 23.8402930403 , 33.1365079365 , -83.9658119658 , -6.591796875 , 5.22613525391 , -2.11334228516 
2018/05/16 12:15:59.427789 , 0.010498046875 , 0.843994140625 , 0.529541015625 , 23.8402930403 , 33.1365079365 , -83.9658119658 , -6.591796875 , 5.22613525391 , -2.11334228516 
2018/05/16 12:15:59.769084 , 0.010498046875 , 0.843994140625 , 0.529541015625 , 23.0905982906 , 33.4363858364 , -85.3152625153 , -2.25830078125 , 3.88336181641 , -1.12915039062 
2018/05/16 12:16:00.110653 , 0.07421875 , 0.866455078125 , 0.524658203125 , 23.0905982906 , 33.4363858364 , -85.3152625153 , -2.25830078125 , 3.88336181641 , -1.12915039062 
2018/05/16 12:16:00.451761 , 0.07421875 , 0.866455078125 , 0.524658203125 , 23.0905982906 , 33.4363858364 , -85.3152625153 , -2.25830078125 , 3.88336181641 , -1.12915039062 
2018/05/16 12:16:00.841639 , 0.07421875 , 0.866455078125 , 0.524658203125 , 24.1401709402 , 34.1860805861 , -85.3152625153 , -5.87463378906 , 4.73785400391 , -0.602722167969 
2018/05/16 12:16:01.134516 , -0.01953125 , 0.88330078125 , 0.489990234375 , 24.1401709402 , 34.1860805861 , -85.3152625153 , -5.87463378906 , 4.73785400391 , -0.602722167969 
2018/05/16 12:16:01.475356 , -0.01953125 , 0.88330078125 , 0.489990234375 , 24.1401709402 , 34.1860805861 , -85.3152625153 , -5.87463378906 , 4.73785400391 , -0.602722167969 
2018/05/16 12:16:01.816746 , -0.01953125 , 0.88330078125 , 0.489990234375 , 23.0905982906 , 33.1365079365 , -85.0153846154 , -5.44738769531 , 4.7607421875 , 0.595092773438 
2018/05/16 12:16:02.158076 , 0.02587890625 , 0.892333984375 , 0.517333984375 , 23.0905982906 , 33.1365079365 , -85.0153846154 , -5.44738769531 , 4.7607421875 , 0.595092773438 
2018/05/16 12:16:02.450680 , 0.02587890625 , 0.892333984375 , 0.517333984375 , 23.0905982906 , 33.1365079365 , -85.0153846154 , -5.44738769531 , 4.7607421875 , 0.595092773438 
2018/05/16 12:16:02.742861 , 0.02587890625 , 0.892333984375 , 0.517333984375 , 23.0905982906 , 33.1365079365 , -85.0153846154 , -5.85174560547 , 4.85229492188 , -0.923156738281 
2018/05/16 12:16:03.035408 , 0.04345703125 , 0.8359375 , 0.522216796875 , 22.6407814408 , 33.8862026862 , -86.8146520147 , -5.85174560547 , 4.85229492188 , -0.923156738281 
2018/05/16 12:16:03.425507 , 0.04345703125 , 0.8359375 , 0.522216796875 , 22.6407814408 , 33.8862026862 , -86.8146520147 , -5.85174560547 , 4.85229492188 , -0.923156738281 
2018/05/16 12:16:03.717862 , 0.04345703125 , 0.8359375 , 0.522216796875 , 22.6407814408 , 33.8862026862 , -86.8146520147 , -4.67681884766 , 6.35528564453 , -2.24304199219 
2018/05/16 12:16:04.010352 , 0.046142578125 , 0.859130859375 , 0.541259765625 , 22.9406593407 , 35.3855921856 , -85.7650793651 , -4.67681884766 , 6.35528564453 , -2.24304199219 
2018/05/16 12:16:04.351646 , 0.046142578125 , 0.859130859375 , 0.541259765625 , 22.9406593407 , 35.3855921856 , -85.7650793651 , -4.67681884766 , 6.35528564453 , -2.24304199219 
2018/05/16 12:16:04.644091 , 0.046142578125 , 0.859130859375 , 0.541259765625 , 22.9406593407 , 35.3855921856 , -85.7650793651 , -4.67681884766 , 6.35528564453 , -2.24304199219 
2018/05/16 12:16:04.936621 , 0.0771484375 , 0.894775390625 , 0.5517578125 , 24.58998779 , 35.2356532357 , -85.3152625153 , -4.04357910156 , 3.06701660156 , -0.701904296875 
2018/05/16 12:16:05.229158 , 0.0771484375 , 0.894775390625 , 0.5517578125 , 24.58998779 , 35.2356532357 , -85.3152625153 , -4.04357910156 , 3.06701660156 , -0.701904296875 
2018/05/16 12:16:05.521589 , 0.0771484375 , 0.894775390625 , 0.5517578125 , 24.58998779 , 35.2356532357 , -85.3152625153 , -4.04357910156 , 3.06701660156 , -0.701904296875 
2018/05/16 12:16:05.814252 , 0.0771484375 , 0.894775390625 , 0.5517578125 , 22.9406593407 , 33.8862026862 , -86.2148962149 , -3.79180908203 , 4.28009033203 , -0.221252441406 
2018/05/16 12:16:06.107121 , 0.010498046875 , 0.847412109375 , 0.531982421875 , 22.9406593407 , 33.8862026862 , -86.2148962149 , -3.79180908203 , 4.28009033203 , -0.221252441406 
2018/05/16 12:16:06.399289 , 0.010498046875 , 0.847412109375 , 0.531982421875 , 22.9406593407 , 33.8862026862 , -86.2148962149 , -3.79180908203 , 4.28009033203 , -0.221252441406 
2018/05/16 12:16:06.691599 , 0.010498046875 , 0.847412109375 , 0.531982421875 , 22.9406593407 , 33.8862026862 , -86.2148962149 , -5.24139404297 , 6.08825683594 , -0.732421875 
2018/05/16 12:16:06.984095 , 0.12939453125 , 0.90234375 , 0.529541015625 , 23.6903540904 , 32.5367521368 , -86.2148962149 , -5.24139404297 , 6.08825683594 , -0.732421875 
2018/05/16 12:16:07.276826 , 0.12939453125 , 0.90234375 , 0.529541015625 , 23.6903540904 , 32.5367521368 , -86.2148962149 , -5.24139404297 , 6.08825683594 , -0.732421875 
2018/05/16 12:16:07.569193 , 0.12939453125 , 0.90234375 , 0.529541015625 , 23.6903540904 , 32.5367521368 , -86.2148962149 , -5.24139404297 , 6.08825683594 , -0.732421875 
2018/05/16 12:16:07.861609 , 0.047607421875 , 0.8994140625 , 0.541259765625 , 24.1401709402 , 32.6866910867 , -85.915018315 , -4.16564941406 , 5.92041015625 , 0.213623046875 
2018/05/16 12:16:08.154084 , 0.047607421875 , 0.8994140625 , 0.541259765625 , 24.1401709402 , 32.6866910867 , -85.915018315 , -4.16564941406 , 5.92041015625 , 0.213623046875 
2018/05/16 12:16:08.446770 , 0.047607421875 , 0.8994140625 , 0.541259765625 , 24.1401709402 , 32.6866910867 , -85.915018315 , -4.16564941406 , 5.92041015625 , 0.213623046875 
2018/05/16 12:16:08.739376 , 0.047607421875 , 0.8994140625 , 0.541259765625 , 24.1401709402 , 32.6866910867 , -85.915018315 , -3.96728515625 , 3.43322753906 , 0.877380371094 
2018/05/16 12:16:09.031656 , 0.0693359375 , 0.886962890625 , 0.5205078125 , 22.4908424908 , 32.3868131868 , -85.3152625153 , -3.96728515625 , 3.43322753906 , 0.877380371094 
2018/05/16 12:16:09.372884 , 0.0693359375 , 0.886962890625 , 0.5205078125 , 22.4908424908 , 32.3868131868 , -85.3152625153 , -3.96728515625 , 3.43322753906 , 0.877380371094 
2018/05/16 12:16:09.665378 , 0.0693359375 , 0.886962890625 , 0.5205078125 , 22.4908424908 , 32.3868131868 , -85.3152625153 , -4.98962402344 , 4.48608398438 , 0.0534057617188 
2018/05/16 12:16:09.957889 , 0.044189453125 , 0.89892578125 , 0.491455078125 , 23.0905982906 , 33.7362637363 , -85.0153846154 , -4.98962402344 , 4.48608398438 , 0.0534057617188 
2018/05/16 12:16:10.250471 , 0.044189453125 , 0.89892578125 , 0.491455078125 , 23.0905982906 , 33.7362637363 , -85.0153846154 , -4.98962402344 , 4.48608398438 , 0.0534057617188 
2018/05/16 12:16:10.542900 , 0.044189453125 , 0.89892578125 , 0.491455078125 , 23.0905982906 , 33.7362637363 , -85.0153846154 , -4.98962402344 , 4.48608398438 , 0.0534057617188 
2018/05/16 12:16:10.835496 , 0.044189453125 , 0.89892578125 , 0.491455078125 , 23.9902319902 , 33.5863247863 , -85.1653235653 , -4.65393066406 , 5.82122802734 , -1.5869140625 
2018/05/16 12:16:11.128070 , -0.006591796875 , 0.866943359375 , 0.5361328125 , 23.9902319902 , 33.5863247863 , -85.1653235653 , -4.65393066406 , 5.82122802734 , -1.5869140625 
2018/05/16 12:16:11.420370 , -0.006591796875 , 0.866943359375 , 0.5361328125 , 23.9902319902 , 33.5863247863 , -85.1653235653 , -4.65393066406 , 5.82122802734 , -1.5869140625 
2018/05/16 12:16:11.713059 , -0.006591796875 , 0.866943359375 , 0.5361328125 , 23.9902319902 , 33.5863247863 , -85.1653235653 , -4.08172607422 , 5.16510009766 , -0.320434570312 
2018/05/16 12:16:12.005403 , 0.044189453125 , 0.894775390625 , 0.564453125 , 22.9406593407 , 33.5863247863 , -85.1653235653 , -4.08172607422 , 5.16510009766 , -0.320434570312 
2018/05/16 12:16:12.297934 , 0.044189453125 , 0.894775390625 , 0.564453125 , 22.9406593407 , 33.5863247863 , -85.1653235653 , -4.08172607422 , 5.16510009766 , -0.320434570312 
2018/05/16 12:16:12.590485 , 0.044189453125 , 0.894775390625 , 0.564453125 , 22.9406593407 , 33.5863247863 , -85.1653235653 , -4.08172607422 , 5.16510009766 , -0.320434570312 
2018/05/16 12:16:12.883937 , 0.0087890625 , 0.8515625 , 0.574951171875 , 23.2405372405 , 32.8366300366 , -84.1157509158 , -3.79943847656 , 5.27954101562 , -0.358581542969 
2018/05/16 12:16:13.175547 , 0.0087890625 , 0.8515625 , 0.574951171875 , 23.2405372405 , 32.8366300366 , -84.1157509158 , -3.79943847656 , 5.27954101562 , -0.358581542969 
2018/05/16 12:16:13.467918 , 0.0087890625 , 0.8515625 , 0.574951171875 , 23.2405372405 , 32.8366300366 , -84.1157509158 , -3.79943847656 , 5.27954101562 , -0.358581542969 
2018/05/16 12:16:13.760432 , 0.0087890625 , 0.8515625 , 0.574951171875 , 23.8402930403 , 34.7858363858 , -85.0153846154 , -4.99725341797 , 4.95910644531 , -1.76239013672 
2018/05/16 12:16:14.052973 , 0.0234375 , 0.8955078125 , 0.513916015625 , 23.8402930403 , 34.7858363858 , -85.0153846154 , -4.99725341797 , 4.95910644531 , -1.76239013672 
2018/05/16 12:16:14.394352 , 0.0234375 , 0.8955078125 , 0.513916015625 , 23.8402930403 , 34.7858363858 , -85.0153846154 , -4.99725341797 , 4.95910644531 , -1.76239013672 
2018/05/16 12:16:14.686664 , 0.0234375 , 0.8955078125 , 0.513916015625 , 23.8402930403 , 34.7858363858 , -85.0153846154 , -7.36236572266 , 8.13293457031 , 0.0839233398438 
2018/05/16 12:16:14.979182 , 0.025634765625 , 0.8447265625 , 0.56005859375 , 25.0398046398 , 34.6358974359 , -85.1653235653 , -7.36236572266 , 8.13293457031 , 0.0839233398438 
2018/05/16 12:16:15.271714 , 0.025634765625 , 0.8447265625 , 0.56005859375 , 25.0398046398 , 34.6358974359 , -85.1653235653 , -7.36236572266 , 8.13293457031 , 0.0839233398438 
2018/05/16 12:16:15.564215 , 0.025634765625 , 0.8447265625 , 0.56005859375 , 25.0398046398 , 34.6358974359 , -85.1653235653 , -7.36236572266 , 8.13293457031 , 0.0839233398438 
2018/05/16 12:16:15.856664 , 0.064453125 , 0.9140625 , 0.5712890625 , 24.2901098901 , 33.5863247863 , -84.4156288156 , -5.18798828125 , 6.31713867188 , 0.244140625 
2018/05/16 12:16:16.198144 , 0.064453125 , 0.9140625 , 0.5712890625 , 24.2901098901 , 33.5863247863 , -84.4156288156 , -5.18798828125 , 6.31713867188 , 0.244140625 
2018/05/16 12:16:16.490475 , 0.064453125 , 0.9140625 , 0.5712890625 , 24.2901098901 , 33.5863247863 , -84.4156288156 , -5.18798828125 , 6.31713867188 , 0.244140625 
2018/05/16 12:16:16.783018 , 0.064453125 , 0.9140625 , 0.5712890625 , 23.9902319902 , 33.8862026862 , -84.1157509158 , -6.11877441406 , 4.33349609375 , 0.267028808594 
2018/05/16 12:16:17.075626 , 0.037109375 , 0.796630859375 , 0.52783203125 , 23.9902319902 , 33.8862026862 , -84.1157509158 , -6.11877441406 , 4.33349609375 , 0.267028808594 
2018/05/16 12:16:17.367980 , 0.037109375 , 0.796630859375 , 0.52783203125 , 23.9902319902 , 33.8862026862 , -84.1157509158 , -6.11877441406 , 4.33349609375 , 0.267028808594 
2018/05/16 12:16:17.660516 , 0.037109375 , 0.796630859375 , 0.52783203125 , 23.9902319902 , 33.8862026862 , -84.1157509158 , -4.68444824219 , 5.62286376953 , -0.907897949219 
2018/05/16 12:16:17.953053 , 0.0341796875 , 0.845703125 , 0.514404296875 , 22.9406593407 , 34.9357753358 , -86.5147741148 , -4.68444824219 , 5.62286376953 , -0.907897949219 
2018/05/16 12:16:18.245520 , 0.0341796875 , 0.845703125 , 0.514404296875 , 22.9406593407 , 34.9357753358 , -86.5147741148 , -4.68444824219 , 5.62286376953 , -0.907897949219 
2018/05/16 12:16:18.586703 , 0.0341796875 , 0.845703125 , 0.514404296875 , 22.9406593407 , 34.9357753358 , -86.5147741148 , -4.68444824219 , 5.62286376953 , -0.907897949219 
2018/05/16 12:16:18.879187 , 0.04248046875 , 0.845947265625 , 0.58056640625 , 25.0398046398 , 32.5367521368 , -85.1653235653 , -4.40979003906 , 5.33294677734 , 0.587463378906 
2018/05/16 12:16:19.171776 , 0.04248046875 , 0.845947265625 , 0.58056640625 , 25.0398046398 , 32.5367521368 , -85.1653235653 , -4.40979003906 , 5.33294677734 , 0.587463378906 
2018/05/16 12:16:19.464179 , 0.04248046875 , 0.845947265625 , 0.58056640625 , 25.0398046398 , 32.5367521368 , -85.1653235653 , -4.40979003906 , 5.33294677734 , 0.587463378906 
2018/05/16 12:16:19.756945 , 0.04248046875 , 0.845947265625 , 0.58056640625 , 24.58998779 , 34.1860805861 , -85.0153846154 , -3.55529785156 , 5.92041015625 , -2.76947021484 
2018/05/16 12:16:20.049234 , 0.062255859375 , 0.935791015625 , 0.541259765625 , 24.58998779 , 34.1860805861 , -85.0153846154 , -3.55529785156 , 5.92041015625 , -2.76947021484 
2018/05/16 12:16:20.341784 , 0.062255859375 , 0.935791015625 , 0.541259765625 , 24.58998779 , 34.1860805861 , -85.0153846154 , -3.55529785156 , 5.92041015625 , -2.76947021484 
2018/05/16 12:16:20.682951 , 0.062255859375 , 0.935791015625 , 0.541259765625 , 24.58998779 , 34.1860805861 , -85.0153846154 , -5.69915771484 , 5.39398193359 , -0.694274902344 
2018/05/16 12:16:20.975525 , -0.001953125 , 0.868896484375 , 0.58984375 , 23.2405372405 , 33.2864468864 , -85.1653235653 , -5.69915771484 , 5.39398193359 , -0.694274902344 
2018/05/16 12:16:21.268028 , -0.001953125 , 0.868896484375 , 0.58984375 , 23.2405372405 , 33.2864468864 , -85.1653235653 , -5.69915771484 , 5.39398193359 , -0.694274902344 
2018/05/16 12:16:21.560467 , -0.001953125 , 0.868896484375 , 0.58984375 , 23.2405372405 , 33.2864468864 , -85.1653235653 , -5.69915771484 , 5.39398193359 , -0.694274902344 
2018/05/16 12:16:21.852939 , 0.044677734375 , 0.84326171875 , 0.521484375 , 25.7894993895 , 33.2864468864 , -84.7155067155 , -6.46209716797 , 5.92803955078 , -0.946044921875 
2018/05/16 12:16:22.145564 , 0.044677734375 , 0.84326171875 , 0.521484375 , 25.7894993895 , 33.2864468864 , -84.7155067155 , -6.46209716797 , 5.92803955078 , -0.946044921875 
2018/05/16 12:16:22.437960 , 0.044677734375 , 0.84326171875 , 0.521484375 , 25.7894993895 , 33.2864468864 , -84.7155067155 , -6.46209716797 , 5.92803955078 , -0.946044921875 
2018/05/16 12:16:22.730478 , 0.044677734375 , 0.84326171875 , 0.521484375 , 25.7894993895 , 33.2864468864 , -84.7155067155 , -3.15093994141 , 3.662109375 , -1.94549560547 
2018/05/16 12:16:23.023005 , 0.0048828125 , 0.8447265625 , 0.552001953125 , 23.8402930403 , 35.5355311355 , -88.0141636142 , -3.15093994141 , 3.662109375 , -1.94549560547 
2018/05/16 12:16:23.315526 , 0.0048828125 , 0.8447265625 , 0.552001953125 , 23.8402930403 , 35.5355311355 , -88.0141636142 , -3.15093994141 , 3.662109375 , -1.94549560547 
2018/05/16 12:16:23.656711 , 0.0048828125 , 0.8447265625 , 0.552001953125 , 23.8402930403 , 35.5355311355 , -88.0141636142 , -3.37982177734 , 1.54113769531 , -0.846862792969 
2018/05/16 12:16:23.998011 , -0.021728515625 , 0.872802734375 , 0.543212890625 , 23.8402930403 , 34.485958486 , -85.0153846154 , -3.37982177734 , 1.54113769531 , -0.846862792969 
2018/05/16 12:16:24.290549 , -0.021728515625 , 0.872802734375 , 0.543212890625 , 23.8402930403 , 34.485958486 , -85.0153846154 , -3.37982177734 , 1.54113769531 , -0.846862792969 
2018/05/16 12:16:24.583285 , -0.021728515625 , 0.872802734375 , 0.543212890625 , 23.8402930403 , 34.485958486 , -85.0153846154 , -3.37982177734 , 1.54113769531 , -0.846862792969 
2018/05/16 12:16:24.875463 , 0.052001953125 , 0.907958984375 , 0.539306640625 , 23.8402930403 , 34.485958486 , -85.0153846154 , -1.8310546875 , 3.22723388672 , 0.480651855469 
2018/05/16 12:16:25.168146 , 0.052001953125 , 0.907958984375 , 0.539306640625 , 23.8402930403 , 34.485958486 , -85.0153846154 , -1.8310546875 , 3.22723388672 , 0.480651855469 
2018/05/16 12:16:25.460472 , 0.052001953125 , 0.907958984375 , 0.539306640625 , 23.8402930403 , 34.485958486 , -85.0153846154 , -1.8310546875 , 3.22723388672 , 0.480651855469 
2018/05/16 12:16:25.801876 , 0.052001953125 , 0.907958984375 , 0.539306640625 , 24.7399267399 , 32.5367521368 , -84.1157509158 , -4.39453125 , 4.24957275391 , -0.79345703125 
2018/05/16 12:16:26.094479 , 0.08056640625 , 0.8662109375 , 0.533447265625 , 24.7399267399 , 32.5367521368 , -84.1157509158 , -4.39453125 , 4.24957275391 , -0.79345703125 
2018/05/16 12:16:26.387218 , 0.08056640625 , 0.8662109375 , 0.533447265625 , 24.7399267399 , 32.5367521368 , -84.1157509158 , -4.39453125 , 4.24957275391 , -0.79345703125 
2018/05/16 12:16:26.679818 , 0.08056640625 , 0.8662109375 , 0.533447265625 , 24.7399267399 , 32.5367521368 , -84.1157509158 , -6.31713867188 , 6.88171386719 , -1.19018554688 
2018/05/16 12:16:27.021348 , 0.02099609375 , 0.825439453125 , 0.54833984375 , 24.7399267399 , 32.5367521368 , -84.1157509158 , -6.31713867188 , 6.88171386719 , -1.19018554688 
2018/05/16 12:16:27.314071 , 0.02099609375 , 0.825439453125 , 0.54833984375 , 24.7399267399 , 32.5367521368 , -84.1157509158 , -6.31713867188 , 6.88171386719 , -1.19018554688 
2018/05/16 12:16:27.704360 , 0.02099609375 , 0.825439453125 , 0.54833984375 , 24.7399267399 , 32.5367521368 , -84.1157509158 , -6.40869140625 , 7.2021484375 , -1.11389160156 
2018/05/16 12:16:27.997071 , -0.03466796875 , 0.87109375 , 0.510498046875 , 24.2901098901 , 33.8862026862 , -85.4652014652 , -6.40869140625 , 7.2021484375 , -1.11389160156 
2018/05/16 12:16:28.289831 , -0.03466796875 , 0.87109375 , 0.510498046875 , 24.2901098901 , 33.8862026862 , -85.4652014652 , -6.40869140625 , 7.2021484375 , -1.11389160156 
2018/05/16 12:16:28.582465 , -0.03466796875 , 0.87109375 , 0.510498046875 , 24.2901098901 , 33.8862026862 , -85.4652014652 , -6.40869140625 , 7.2021484375 , -1.11389160156 
2018/05/16 12:16:28.875181 , 0.056884765625 , 0.904052734375 , 0.556640625 , 24.2901098901 , 33.8862026862 , -85.4652014652 , -4.64630126953 , 4.37927246094 , -0.755310058594 
2018/05/16 12:16:29.265502 , 0.056884765625 , 0.904052734375 , 0.556640625 , 24.2901098901 , 33.8862026862 , -85.4652014652 , -4.64630126953 , 4.37927246094 , -0.755310058594 
2018/05/16 12:16:29.606906 , 0.056884765625 , 0.904052734375 , 0.556640625 , 24.2901098901 , 33.8862026862 , -85.4652014652 , -4.64630126953 , 4.37927246094 , -0.755310058594 
2018/05/16 12:16:29.899659 , -0.0244140625 , 0.83544921875 , 0.5107421875 , 22.190964591 , 33.8862026862 , -85.7650793651 , -3.06701660156 , 3.60870361328 , -1.96075439453 
2018/05/16 12:16:30.192447 , -0.0244140625 , 0.83544921875 , 0.5107421875 , 22.190964591 , 33.8862026862 , -85.7650793651 , -3.06701660156 , 3.60870361328 , -1.96075439453 
2018/05/16 12:16:30.485029 , -0.0244140625 , 0.83544921875 , 0.5107421875 , 22.190964591 , 33.8862026862 , -85.7650793651 , -3.06701660156 , 3.60870361328 , -1.96075439453 
2018/05/16 12:16:30.777673 , -0.0244140625 , 0.83544921875 , 0.5107421875 , 22.190964591 , 33.8862026862 , -85.7650793651 , -6.93511962891 , 3.69262695312 , -1.15966796875 
2018/05/16 12:16:31.070395 , 0.03271484375 , 0.856201171875 , 0.54248046875 , 22.190964591 , 33.8862026862 , -85.7650793651 , -6.93511962891 , 3.69262695312 , -1.15966796875 
2018/05/16 12:16:31.411872 , 0.03271484375 , 0.856201171875 , 0.54248046875 , 22.190964591 , 33.8862026862 , -85.7650793651 , -6.93511962891 , 3.69262695312 , -1.15966796875 
2018/05/16 12:16:31.704573 , 0.03271484375 , 0.856201171875 , 0.54248046875 , 22.190964591 , 33.8862026862 , -85.7650793651 , -5.03540039062 , 3.34930419922 , -1.84631347656 
2018/05/16 12:16:31.997185 , 0.051025390625 , 0.8466796875 , 0.5107421875 , 22.190964591 , 33.8862026862 , -85.7650793651 , -5.03540039062 , 3.34930419922 , -1.84631347656 
2018/05/16 12:16:32.289992 , 0.051025390625 , 0.8466796875 , 0.5107421875 , 22.190964591 , 33.8862026862 , -85.7650793651 , -5.03540039062 , 3.34930419922 , -1.84631347656 
2018/05/16 12:16:32.582536 , 0.051025390625 , 0.8466796875 , 0.5107421875 , 22.190964591 , 33.8862026862 , -85.7650793651 , -5.03540039062 , 3.34930419922 , -1.84631347656 
2018/05/16 12:16:32.875268 , 0.0888671875 , 0.780517578125 , 0.5361328125 , 22.7907203907 , 33.7362637363 , -84.5655677656 , -5.10406494141 , 6.20269775391 , -0.747680664062 
2018/05/16 12:16:33.167990 , 0.0888671875 , 0.780517578125 , 0.5361328125 , 22.7907203907 , 33.7362637363 , -84.5655677656 , -5.10406494141 , 6.20269775391 , -0.747680664062 
2018/05/16 12:16:33.460563 , 0.0888671875 , 0.780517578125 , 0.5361328125 , 22.7907203907 , 33.7362637363 , -84.5655677656 , -5.10406494141 , 6.20269775391 , -0.747680664062 
2018/05/16 12:16:33.753123 , 0.0888671875 , 0.780517578125 , 0.5361328125 , 24.1401709402 , 33.7362637363 , -86.3648351648 , -3.60107421875 , 3.99017333984 , -1.75476074219 
2018/05/16 12:16:34.094738 , 0.051025390625 , 0.869873046875 , 0.563232421875 , 24.1401709402 , 33.7362637363 , -86.3648351648 , -3.60107421875 , 3.99017333984 , -1.75476074219 
2018/05/16 12:16:34.435977 , 0.051025390625 , 0.869873046875 , 0.563232421875 , 24.1401709402 , 33.7362637363 , -86.3648351648 , -3.60107421875 , 3.99017333984 , -1.75476074219 
2018/05/16 12:16:34.728622 , 0.051025390625 , 0.869873046875 , 0.563232421875 , 24.1401709402 , 33.7362637363 , -86.3648351648 , -5.65338134766 , 5.24139404297 , 0.534057617188 
2018/05/16 12:16:35.021338 , 0.04638671875 , 0.8798828125 , 0.54931640625 , 24.1401709402 , 33.7362637363 , -86.3648351648 , -5.65338134766 , 5.24139404297 , 0.534057617188 
2018/05/16 12:16:35.313930 , 0.04638671875 , 0.8798828125 , 0.54931640625 , 24.1401709402 , 33.7362637363 , -86.3648351648 , -5.65338134766 , 5.24139404297 , 0.534057617188 
2018/05/16 12:16:35.606538 , 0.04638671875 , 0.8798828125 , 0.54931640625 , 24.1401709402 , 33.7362637363 , -86.3648351648 , -5.65338134766 , 5.24139404297 , 0.534057617188 
2018/05/16 12:16:35.899151 , 0.03173828125 , 0.890625 , 0.514404296875 , 24.1401709402 , 33.7362637363 , -86.3648351648 , -4.52423095703 , 4.91333007812 , -0.953674316406 
2018/05/16 12:16:36.192028 , 0.03173828125 , 0.890625 , 0.514404296875 , 24.1401709402 , 33.7362637363 , -86.3648351648 , -4.52423095703 , 4.91333007812 , -0.953674316406 
2018/05/16 12:16:36.484541 , 0.03173828125 , 0.890625 , 0.514404296875 , 24.1401709402 , 33.7362637363 , -86.3648351648 , -4.52423095703 , 4.91333007812 , -0.953674316406 
2018/05/16 12:16:36.825805 , 0.03173828125 , 0.890625 , 0.514404296875 , 24.58998779 , 33.1365079365 , -85.915018315 , -1.43432617188 , 1.80053710938 , -0.801086425781 
2018/05/16 12:16:37.118593 , 0.033935546875 , 0.818115234375 , 0.5341796875 , 24.58998779 , 33.1365079365 , -85.915018315 , -1.43432617188 , 1.80053710938 , -0.801086425781 
2018/05/16 12:16:37.411058 , 0.033935546875 , 0.818115234375 , 0.5341796875 , 24.58998779 , 33.1365079365 , -85.915018315 , -1.43432617188 , 1.80053710938 , -0.801086425781 
2018/05/16 12:16:37.752656 , 0.033935546875 , 0.818115234375 , 0.5341796875 , 24.58998779 , 33.1365079365 , -85.915018315 , -2.197265625 , -0.480651855469 , -0.984191894531 
2018/05/16 12:16:38.045098 , 0.071044921875 , 0.907470703125 , 0.544921875 , 23.0905982906 , 33.4363858364 , -85.0153846154 , -2.197265625 , -0.480651855469 , -0.984191894531 
2018/05/16 12:16:38.337896 , 0.071044921875 , 0.907470703125 , 0.544921875 , 23.0905982906 , 33.4363858364 , -85.0153846154 , -2.197265625 , -0.480651855469 , -0.984191894531 
2018/05/16 12:16:38.679050 , 0.071044921875 , 0.907470703125 , 0.544921875 , 23.0905982906 , 33.4363858364 , -85.0153846154 , -3.25012207031 , 2.74658203125 , -1.25122070312 
2018/05/16 12:16:39.020479 , 0.046875 , 0.864501953125 , 0.55078125 , 24.7399267399 , 33.5863247863 , -85.4652014652 , -3.25012207031 , 2.74658203125 , -1.25122070312 
2018/05/16 12:16:39.313086 , 0.046875 , 0.864501953125 , 0.55078125 , 24.7399267399 , 33.5863247863 , -85.4652014652 , -3.25012207031 , 2.74658203125 , -1.25122070312 
2018/05/16 12:16:39.605677 , 0.046875 , 0.864501953125 , 0.55078125 , 24.7399267399 , 33.5863247863 , -85.4652014652 , -3.25012207031 , 2.74658203125 , -1.25122070312 
2018/05/16 12:16:39.898230 , 0.033447265625 , 0.867919921875 , 0.51953125 , 23.0905982906 , 34.1860805861 , -85.915018315 , -4.73785400391 , 3.93676757812 , -1.24359130859 
2018/05/16 12:16:40.191009 , 0.033447265625 , 0.867919921875 , 0.51953125 , 23.0905982906 , 34.1860805861 , -85.915018315 , -4.73785400391 , 3.93676757812 , -1.24359130859 
2018/05/16 12:16:40.483532 , 0.033447265625 , 0.867919921875 , 0.51953125 , 23.0905982906 , 34.1860805861 , -85.915018315 , -4.73785400391 , 3.93676757812 , -1.24359130859 
2018/05/16 12:16:40.776058 , 0.033447265625 , 0.867919921875 , 0.51953125 , 24.8898656899 , 34.7858363858 , -85.6151404151 , -3.20434570312 , 4.57000732422 , -1.62506103516 
2018/05/16 12:16:41.068781 , 0.038330078125 , 0.84521484375 , 0.548583984375 , 24.8898656899 , 34.7858363858 , -85.6151404151 , -3.20434570312 , 4.57000732422 , -1.62506103516 
2018/05/16 12:16:41.361268 , 0.038330078125 , 0.84521484375 , 0.548583984375 , 24.8898656899 , 34.7858363858 , -85.6151404151 , -3.20434570312 , 4.57000732422 , -1.62506103516 
2018/05/16 12:16:41.653852 , 0.038330078125 , 0.84521484375 , 0.548583984375 , 24.8898656899 , 34.7858363858 , -85.6151404151 , -3.20434570312 , 4.57000732422 , -1.62506103516 
2018/05/16 12:16:41.946451 , 0.089599609375 , 0.871337890625 , 0.54736328125 , 24.7399267399 , 32.8366300366 , -86.2148962149 , -8.95690917969 , 7.20977783203 , 0.724792480469 
2018/05/16 12:16:42.239130 , 0.089599609375 , 0.871337890625 , 0.54736328125 , 24.7399267399 , 32.8366300366 , -86.2148962149 , -8.95690917969 , 7.20977783203 , 0.724792480469 
2018/05/16 12:16:42.531621 , 0.089599609375 , 0.871337890625 , 0.54736328125 , 24.7399267399 , 32.8366300366 , -86.2148962149 , -8.95690917969 , 7.20977783203 , 0.724792480469 
2018/05/16 12:16:42.824148 , 0.089599609375 , 0.871337890625 , 0.54736328125 , 24.1401709402 , 35.5355311355 , -85.6151404151 , -4.73785400391 , 2.96783447266 , -0.518798828125 
2018/05/16 12:16:43.116906 , 0.021484375 , 0.864990234375 , 0.557861328125 , 24.1401709402 , 35.5355311355 , -85.6151404151 , -4.73785400391 , 2.96783447266 , -0.518798828125 
2018/05/16 12:16:43.409323 , 0.021484375 , 0.864990234375 , 0.557861328125 , 24.1401709402 , 35.5355311355 , -85.6151404151 , -4.73785400391 , 2.96783447266 , -0.518798828125 
2018/05/16 12:16:43.701943 , 0.021484375 , 0.864990234375 , 0.557861328125 , 24.1401709402 , 35.5355311355 , -85.6151404151 , -1.42669677734 , 4.47845458984 , 0.968933105469 
2018/05/16 12:16:44.043281 , 0.068359375 , 0.862060546875 , 0.49609375 , 24.1401709402 , 35.8354090354 , -85.6151404151 , -1.42669677734 , 4.47845458984 , 0.968933105469 
2018/05/16 12:16:44.335868 , 0.068359375 , 0.862060546875 , 0.49609375 , 24.1401709402 , 35.8354090354 , -85.6151404151 , -1.42669677734 , 4.47845458984 , 0.968933105469 
2018/05/16 12:16:44.677182 , 0.068359375 , 0.862060546875 , 0.49609375 , 24.1401709402 , 35.8354090354 , -85.6151404151 , -5.20324707031 , 2.83050537109 , -0.526428222656 
2018/05/16 12:16:45.018590 , -0.008056640625 , 0.914306640625 , 0.57275390625 , 24.8898656899 , 33.7362637363 , -85.3152625153 , -5.20324707031 , 2.83050537109 , -0.526428222656 
2018/05/16 12:16:45.311160 , -0.008056640625 , 0.914306640625 , 0.57275390625 , 24.8898656899 , 33.7362637363 , -85.3152625153 , -5.20324707031 , 2.83050537109 , -0.526428222656 
2018/05/16 12:16:45.603891 , -0.008056640625 , 0.914306640625 , 0.57275390625 , 24.8898656899 , 33.7362637363 , -85.3152625153 , -5.20324707031 , 2.83050537109 , -0.526428222656 
2018/05/16 12:16:45.945050 , -0.031982421875 , 0.859619140625 , 0.57958984375 , 25.0398046398 , 32.5367521368 , -85.4652014652 , -3.20434570312 , 4.31060791016 , -0.839233398438 
2018/05/16 12:16:46.237597 , -0.031982421875 , 0.859619140625 , 0.57958984375 , 25.0398046398 , 32.5367521368 , -85.4652014652 , -3.20434570312 , 4.31060791016 , -0.839233398438 
2018/05/16 12:16:46.530120 , -0.031982421875 , 0.859619140625 , 0.57958984375 , 25.0398046398 , 32.5367521368 , -85.4652014652 , -3.20434570312 , 4.31060791016 , -0.839233398438 
2018/05/16 12:16:46.822692 , -0.031982421875 , 0.859619140625 , 0.57958984375 , 23.2405372405 , 34.6358974359 , -86.2148962149 , -2.66265869141 , 4.69207763672 , -0.0534057617188 
2018/05/16 12:16:47.115256 , 0.029541015625 , 0.812744140625 , 0.5322265625 , 23.2405372405 , 34.6358974359 , -86.2148962149 , -2.66265869141 , 4.69207763672 , -0.0534057617188 
2018/05/16 12:16:47.407862 , 0.029541015625 , 0.812744140625 , 0.5322265625 , 23.2405372405 , 34.6358974359 , -86.2148962149 , -2.66265869141 , 4.69207763672 , -0.0534057617188 
2018/05/16 12:16:47.700352 , 0.029541015625 , 0.812744140625 , 0.5322265625 , 23.2405372405 , 34.6358974359 , -86.2148962149 , -4.50897216797 , 2.90679931641 , -0.0457763671875 
2018/05/16 12:16:47.992967 , 0.0244140625 , 0.8798828125 , 0.557861328125 , 23.0905982906 , 33.7362637363 , -86.6647130647 , -4.50897216797 , 2.90679931641 , -0.0457763671875 
2018/05/16 12:16:48.285599 , 0.0244140625 , 0.8798828125 , 0.557861328125 , 23.0905982906 , 33.7362637363 , -86.6647130647 , -4.50897216797 , 2.90679931641 , -0.0457763671875 
2018/05/16 12:16:48.578092 , 0.0244140625 , 0.8798828125 , 0.557861328125 , 23.0905982906 , 33.7362637363 , -86.6647130647 , -4.50897216797 , 2.90679931641 , -0.0457763671875 
2018/05/16 12:16:48.870604 , 0.009521484375 , 0.869873046875 , 0.579833984375 , 23.5404151404 , 34.7858363858 , -85.6151404151 , -6.63757324219 , 5.66101074219 , 0.785827636719 
2018/05/16 12:16:49.212138 , 0.009521484375 , 0.869873046875 , 0.579833984375 , 23.5404151404 , 34.7858363858 , -85.6151404151 , -6.63757324219 , 5.66101074219 , 0.785827636719 
2018/05/16 12:16:49.504494 , 0.009521484375 , 0.869873046875 , 0.579833984375 , 23.5404151404 , 34.7858363858 , -85.6151404151 , -6.63757324219 , 5.66101074219 , 0.785827636719 
2018/05/16 12:16:49.797133 , 0.009521484375 , 0.869873046875 , 0.579833984375 , 23.8402930403 , 34.1860805861 , -85.915018315 , -3.73840332031 , 3.41796875 , 0.885009765625 
2018/05/16 12:16:50.089800 , 0.04052734375 , 0.883056640625 , 0.511962890625 , 23.8402930403 , 34.1860805861 , -85.915018315 , -3.73840332031 , 3.41796875 , 0.885009765625 
2018/05/16 12:16:50.382238 , 0.04052734375 , 0.883056640625 , 0.511962890625 , 23.8402930403 , 34.1860805861 , -85.915018315 , -3.73840332031 , 3.41796875 , 0.885009765625 
2018/05/16 12:16:50.674720 , 0.04052734375 , 0.883056640625 , 0.511962890625 , 23.8402930403 , 34.1860805861 , -85.915018315 , -4.23431396484 , 4.28009033203 , -0.869750976562 
2018/05/16 12:16:50.967308 , 0.034423828125 , 0.881103515625 , 0.4990234375 , 24.8898656899 , 34.485958486 , -84.5655677656 , -4.23431396484 , 4.28009033203 , -0.869750976562 
2018/05/16 12:16:51.259942 , 0.034423828125 , 0.881103515625 , 0.4990234375 , 24.8898656899 , 34.485958486 , -84.5655677656 , -4.23431396484 , 4.28009033203 , -0.869750976562 
2018/05/16 12:16:51.552407 , 0.034423828125 , 0.881103515625 , 0.4990234375 , 24.8898656899 , 34.485958486 , -84.5655677656 , -4.23431396484 , 4.28009033203 , -0.869750976562 
2018/05/16 12:16:51.844901 , 0.034423828125 , 0.881103515625 , 0.4990234375 , 24.7399267399 , 34.6358974359 , -85.7650793651 , -2.98309326172 , 5.06591796875 , -1.00708007812 
2018/05/16 12:16:52.137579 , 0.02978515625 , 0.8759765625 , 0.514404296875 , 24.7399267399 , 34.6358974359 , -85.7650793651 , -2.98309326172 , 5.06591796875 , -1.00708007812 
2018/05/16 12:16:52.430602 , 0.02978515625 , 0.8759765625 , 0.514404296875 , 24.7399267399 , 34.6358974359 , -85.7650793651 , -2.98309326172 , 5.06591796875 , -1.00708007812 
2018/05/16 12:16:52.722747 , 0.02978515625 , 0.8759765625 , 0.514404296875 , 24.7399267399 , 34.6358974359 , -85.7650793651 , -4.63104248047 , 7.36999511719 , -0.892639160156 
2018/05/16 12:16:53.015106 , 0.022216796875 , 0.859375 , 0.52734375 , 24.58998779 , 31.936996337 , -84.2656898657 , -4.63104248047 , 7.36999511719 , -0.892639160156 
2018/05/16 12:16:53.307930 , 0.022216796875 , 0.859375 , 0.52734375 , 24.58998779 , 31.936996337 , -84.2656898657 , -4.63104248047 , 7.36999511719 , -0.892639160156 
2018/05/16 12:16:53.600531 , 0.022216796875 , 0.859375 , 0.52734375 , 24.58998779 , 31.936996337 , -84.2656898657 , -4.63104248047 , 7.36999511719 , -0.892639160156 
2018/05/16 12:16:53.892754 , 0.0244140625 , 0.845947265625 , 0.50830078125 , 23.5404151404 , 33.7362637363 , -85.0153846154 , -5.18035888672 , 2.70843505859 , -1.78527832031 
2018/05/16 12:16:54.234322 , 0.0244140625 , 0.845947265625 , 0.50830078125 , 23.5404151404 , 33.7362637363 , -85.0153846154 , -5.18035888672 , 2.70843505859 , -1.78527832031 
2018/05/16 12:16:54.526616 , 0.0244140625 , 0.845947265625 , 0.50830078125 , 23.5404151404 , 33.7362637363 , -85.0153846154 , -5.18035888672 , 2.70843505859 , -1.78527832031 
2018/05/16 12:16:54.819120 , 0.0244140625 , 0.845947265625 , 0.50830078125 , 23.5404151404 , 33.4363858364 , -85.915018315 , -6.15692138672 , 5.93566894531 , 0.579833984375 
2018/05/16 12:16:55.111774 , 0.028076171875 , 0.884033203125 , 0.566650390625 , 23.5404151404 , 33.4363858364 , -85.915018315 , -6.15692138672 , 5.93566894531 , 0.579833984375 
2018/05/16 12:16:55.404266 , 0.028076171875 , 0.884033203125 , 0.566650390625 , 23.5404151404 , 33.4363858364 , -85.915018315 , -6.15692138672 , 5.93566894531 , 0.579833984375 
2018/05/16 12:16:55.745541 , 0.028076171875 , 0.884033203125 , 0.566650390625 , 23.5404151404 , 33.4363858364 , -85.915018315 , -5.13458251953 , 6.72149658203 , 0.816345214844 
2018/05/16 12:16:56.038091 , 0.04296875 , 0.927978515625 , 0.53515625 , 24.1401709402 , 33.1365079365 , -85.3152625153 , -5.13458251953 , 6.72149658203 , 0.816345214844 
2018/05/16 12:16:56.330623 , 0.04296875 , 0.927978515625 , 0.53515625 , 24.1401709402 , 33.1365079365 , -85.3152625153 , -5.13458251953 , 6.72149658203 , 0.816345214844 
2018/05/16 12:16:56.623125 , 0.04296875 , 0.927978515625 , 0.53515625 , 24.1401709402 , 33.1365079365 , -85.3152625153 , -5.13458251953 , 6.72149658203 , 0.816345214844 
2018/05/16 12:16:56.915647 , 0.028564453125 , 0.8955078125 , 0.495361328125 , 22.7907203907 , 34.7858363858 , -85.6151404151 , -2.71606445312 , 4.73022460938 , 0.0839233398438 
2018/05/16 12:16:57.208389 , 0.028564453125 , 0.8955078125 , 0.495361328125 , 22.7907203907 , 34.7858363858 , -85.6151404151 , -2.71606445312 , 4.73022460938 , 0.0839233398438 
2018/05/16 12:16:57.500782 , 0.028564453125 , 0.8955078125 , 0.495361328125 , 22.7907203907 , 34.7858363858 , -85.6151404151 , -2.71606445312 , 4.73022460938 , 0.0839233398438 
2018/05/16 12:16:57.793268 , 0.028564453125 , 0.8955078125 , 0.495361328125 , 23.6903540904 , 32.8366300366 , -85.4652014652 , -3.00598144531 , 5.66101074219 , 1.02996826172 
2018/05/16 12:16:58.134785 , 0.013916015625 , 0.913330078125 , 0.52685546875 , 23.6903540904 , 32.8366300366 , -85.4652014652 , -3.00598144531 , 5.66101074219 , 1.02996826172 
2018/05/16 12:16:58.427076 , 0.013916015625 , 0.913330078125 , 0.52685546875 , 23.6903540904 , 32.8366300366 , -85.4652014652 , -3.00598144531 , 5.66101074219 , 1.02996826172 
2018/05/16 12:16:58.719639 , 0.013916015625 , 0.913330078125 , 0.52685546875 , 23.6903540904 , 32.8366300366 , -85.4652014652 , -4.39453125 , 2.72369384766 , -0.160217285156 
2018/05/16 12:16:59.012135 , 0.019287109375 , 0.859130859375 , 0.505126953125 , 24.1401709402 , 34.1860805861 , -85.0153846154 , -4.39453125 , 2.72369384766 , -0.160217285156 
2018/05/16 12:16:59.353538 , 0.019287109375 , 0.859130859375 , 0.505126953125 , 24.1401709402 , 34.1860805861 , -85.0153846154 , -4.39453125 , 2.72369384766 , -0.160217285156 
2018/05/16 12:16:59.645933 , 0.019287109375 , 0.859130859375 , 0.505126953125 , 24.1401709402 , 34.1860805861 , -85.0153846154 , -4.39453125 , 2.72369384766 , -0.160217285156 
2018/05/16 12:16:59.938559 , 0.03466796875 , 0.902099609375 , 0.55322265625 , 23.0905982906 , 33.4363858364 , -85.6151404151 , -4.90570068359 , 6.7138671875 , 0.534057617188 
2018/05/16 12:17:00.231390 , 0.03466796875 , 0.902099609375 , 0.55322265625 , 23.0905982906 , 33.4363858364 , -85.6151404151 , -4.90570068359 , 6.7138671875 , 0.534057617188 
2018/05/16 12:17:00.523584 , 0.03466796875 , 0.902099609375 , 0.55322265625 , 23.0905982906 , 33.4363858364 , -85.6151404151 , -4.90570068359 , 6.7138671875 , 0.534057617188 
2018/05/16 12:17:00.816056 , 0.03466796875 , 0.902099609375 , 0.55322265625 , 23.5404151404 , 33.4363858364 , -87.2644688645 , -3.55529785156 , 4.13513183594 , 0.0457763671875 
2018/05/16 12:17:01.109130 , 0.05908203125 , 0.92578125 , 0.55078125 , 23.5404151404 , 33.4363858364 , -87.2644688645 , -3.55529785156 , 4.13513183594 , 0.0457763671875 
2018/05/16 12:17:01.401250 , 0.05908203125 , 0.92578125 , 0.55078125 , 23.5404151404 , 33.4363858364 , -87.2644688645 , -3.55529785156 , 4.13513183594 , 0.0457763671875 
2018/05/16 12:17:01.693822 , 0.05908203125 , 0.92578125 , 0.55078125 , 23.5404151404 , 33.4363858364 , -87.2644688645 , -5.66101074219 , 6.05010986328 , -1.67083740234 
2018/05/16 12:17:01.986179 , -0.01123046875 , 0.925537109375 , 0.535400390625 , 22.6407814408 , 31.7870573871 , -86.5147741148 , -5.66101074219 , 6.05010986328 , -1.67083740234 
2018/05/16 12:17:02.278904 , -0.01123046875 , 0.925537109375 , 0.535400390625 , 22.6407814408 , 31.7870573871 , -86.5147741148 , -5.66101074219 , 6.05010986328 , -1.67083740234 
2018/05/16 12:17:02.571268 , -0.01123046875 , 0.925537109375 , 0.535400390625 , 22.6407814408 , 31.7870573871 , -86.5147741148 , -5.66101074219 , 6.05010986328 , -1.67083740234 
2018/05/16 12:17:02.863903 , 0.0380859375 , 0.862548828125 , 0.5693359375 , 23.2405372405 , 33.8862026862 , -86.5147741148 , -0.770568847656 , 0.663757324219 , -2.22778320312 
2018/05/16 12:17:03.205317 , 0.0380859375 , 0.862548828125 , 0.5693359375 , 23.2405372405 , 33.8862026862 , -86.5147741148 , -0.770568847656 , 0.663757324219 , -2.22778320312 
2018/05/16 12:17:03.497627 , 0.0380859375 , 0.862548828125 , 0.5693359375 , 23.2405372405 , 33.8862026862 , -86.5147741148 , -0.770568847656 , 0.663757324219 , -2.22778320312 
2018/05/16 12:17:03.887590 , 0.013671875 , 0.837646484375 , 0.591552734375 , 23.2405372405 , 36.1352869353 , -86.8146520147 , -2.99072265625 , 6.54602050781 , -1.39617919922 
2018/05/16 12:17:04.180186 , 0.013671875 , 0.837646484375 , 0.591552734375 , 23.2405372405 , 36.1352869353 , -86.8146520147 , -2.99072265625 , 6.54602050781 , -1.39617919922 
2018/05/16 12:17:04.521408 , 0.013671875 , 0.837646484375 , 0.591552734375 , 23.2405372405 , 36.1352869353 , -86.8146520147 , -2.99072265625 , 6.54602050781 , -1.39617919922 
2018/05/16 12:17:04.813924 , 0.013671875 , 0.837646484375 , 0.591552734375 , 24.1401709402 , 31.936996337 , -86.3648351648 , -4.66918945312 , 3.73840332031 , 1.13677978516 
2018/05/16 12:17:05.106634 , -0.01318359375 , 0.88916015625 , 0.566162109375 , 24.1401709402 , 31.936996337 , -86.3648351648 , -4.66918945312 , 3.73840332031 , 1.13677978516 
2018/05/16 12:17:05.447769 , -0.01318359375 , 0.88916015625 , 0.566162109375 , 24.1401709402 , 31.936996337 , -86.3648351648 , -4.66918945312 , 3.73840332031 , 1.13677978516 
2018/05/16 12:17:05.740297 , -0.01318359375 , 0.88916015625 , 0.566162109375 , 24.1401709402 , 31.936996337 , -86.3648351648 , -4.0283203125 , 5.16510009766 , -0.30517578125 
2018/05/16 12:17:06.032782 , 0.069580078125 , 0.833740234375 , 0.52587890625 , 24.1401709402 , 31.936996337 , -86.3648351648 , -4.0283203125 , 5.16510009766 , -0.30517578125 
2018/05/16 12:17:06.325437 , 0.069580078125 , 0.833740234375 , 0.52587890625 , 24.1401709402 , 31.936996337 , -86.3648351648 , -4.0283203125 , 5.16510009766 , -0.30517578125 
2018/05/16 12:17:06.617781 , 0.069580078125 , 0.833740234375 , 0.52587890625 , 24.1401709402 , 31.936996337 , -86.3648351648 , -4.0283203125 , 5.16510009766 , -0.30517578125 
2018/05/16 12:17:06.910369 , -0.009765625 , 0.843017578125 , 0.520263671875 , 23.0905982906 , 31.6371184371 , -85.6151404151 , -4.35638427734 , 5.52368164062 , -1.06811523438 
2018/05/16 12:17:07.203028 , -0.009765625 , 0.843017578125 , 0.520263671875 , 23.0905982906 , 31.6371184371 , -85.6151404151 , -4.35638427734 , 5.52368164062 , -1.06811523438 
2018/05/16 12:17:07.544154 , -0.009765625 , 0.843017578125 , 0.520263671875 , 23.0905982906 , 31.6371184371 , -85.6151404151 , -4.35638427734 , 5.52368164062 , -1.06811523438 
2018/05/16 12:17:07.836668 , -0.009765625 , 0.843017578125 , 0.520263671875 , 23.0905982906 , 31.6371184371 , -85.6151404151 , -5.68389892578 , 8.01849365234 , -0.3662109375 
2018/05/16 12:17:08.129699 , -0.010009765625 , 0.8994140625 , 0.47802734375 , 23.0905982906 , 31.6371184371 , -85.6151404151 , -5.68389892578 , 8.01849365234 , -0.3662109375 
2018/05/16 12:17:08.470566 , -0.010009765625 , 0.8994140625 , 0.47802734375 , 23.0905982906 , 31.6371184371 , -85.6151404151 , -5.68389892578 , 8.01849365234 , -0.3662109375 
2018/05/16 12:17:08.762942 , -0.010009765625 , 0.8994140625 , 0.47802734375 , 23.2405372405 , 32.8366300366 , -85.1653235653 , -4.0283203125 , 5.22613525391 , -0.968933105469 
2018/05/16 12:17:09.104382 , 0.0703125 , 0.848876953125 , 0.531982421875 , 23.2405372405 , 32.8366300366 , -85.1653235653 , -4.0283203125 , 5.22613525391 , -0.968933105469 
2018/05/16 12:17:09.397016 , 0.0703125 , 0.848876953125 , 0.531982421875 , 23.2405372405 , 32.8366300366 , -85.1653235653 , -4.0283203125 , 5.22613525391 , -0.968933105469 
2018/05/16 12:17:09.689242 , 0.0703125 , 0.848876953125 , 0.531982421875 , 23.2405372405 , 32.8366300366 , -85.1653235653 , -5.16510009766 , 7.24029541016 , -1.0986328125 
2018/05/16 12:17:09.981733 , 0.0419921875 , 0.840576171875 , 0.564208984375 , 23.2405372405 , 32.8366300366 , -85.1653235653 , -5.16510009766 , 7.24029541016 , -1.0986328125 
2018/05/16 12:17:10.274563 , 0.0419921875 , 0.840576171875 , 0.564208984375 , 23.2405372405 , 32.8366300366 , -85.1653235653 , -5.16510009766 , 7.24029541016 , -1.0986328125 
2018/05/16 12:17:10.615646 , 0.0419921875 , 0.840576171875 , 0.564208984375 , 23.2405372405 , 32.8366300366 , -85.1653235653 , -5.16510009766 , 7.24029541016 , -1.0986328125 
2018/05/16 12:17:10.908049 , 0.007568359375 , 0.85546875 , 0.52099609375 , 22.7907203907 , 34.1860805861 , -85.3152625153 , -2.23541259766 , 2.29644775391 , -1.54876708984 
2018/05/16 12:17:11.200529 , 0.007568359375 , 0.85546875 , 0.52099609375 , 22.7907203907 , 34.1860805861 , -85.3152625153 , -2.23541259766 , 2.29644775391 , -1.54876708984 
2018/05/16 12:17:11.493085 , 0.007568359375 , 0.85546875 , 0.52099609375 , 22.7907203907 , 34.1860805861 , -85.3152625153 , -2.23541259766 , 2.29644775391 , -1.54876708984 
2018/05/16 12:17:11.785601 , 0.007568359375 , 0.85546875 , 0.52099609375 , 22.7907203907 , 34.1860805861 , -85.3152625153 , -7.39288330078 , 7.52258300781 , -0.358581542969 
2018/05/16 12:17:12.078276 , 0.02587890625 , 0.85693359375 , 0.517333984375 , 22.7907203907 , 34.1860805861 , -85.3152625153 , -7.39288330078 , 7.52258300781 , -0.358581542969 
2018/05/16 12:17:12.370655 , 0.02587890625 , 0.85693359375 , 0.517333984375 , 22.7907203907 , 34.1860805861 , -85.3152625153 , -7.39288330078 , 7.52258300781 , -0.358581542969 
2018/05/16 12:17:12.663146 , 0.02587890625 , 0.85693359375 , 0.517333984375 , 22.7907203907 , 34.1860805861 , -85.3152625153 , -7.39288330078 , 7.52258300781 , -0.358581542969 
2018/05/16 12:17:12.955647 , 0.046142578125 , 0.873779296875 , 0.587158203125 , 22.7907203907 , 34.1860805861 , -85.3152625153 , -3.40270996094 , 4.14276123047 , -1.60980224609 
2018/05/16 12:17:13.248495 , 0.046142578125 , 0.873779296875 , 0.587158203125 , 22.7907203907 , 34.1860805861 , -85.3152625153 , -3.40270996094 , 4.14276123047 , -1.60980224609 
2018/05/16 12:17:13.540685 , 0.046142578125 , 0.873779296875 , 0.587158203125 , 22.7907203907 , 34.1860805861 , -85.3152625153 , -3.40270996094 , 4.14276123047 , -1.60980224609 
2018/05/16 12:17:13.833180 , 0.046142578125 , 0.873779296875 , 0.587158203125 , 23.9902319902 , 32.2368742369 , -84.7155067155 , -4.90570068359 , 6.85119628906 , -0.816345214844 
2018/05/16 12:17:14.125913 , 0.0771484375 , 0.857421875 , 0.48828125 , 23.9902319902 , 32.2368742369 , -84.7155067155 , -4.90570068359 , 6.85119628906 , -0.816345214844 
2018/05/16 12:17:14.418367 , 0.0771484375 , 0.857421875 , 0.48828125 , 23.9902319902 , 32.2368742369 , -84.7155067155 , -4.90570068359 , 6.85119628906 , -0.816345214844 
2018/05/16 12:17:14.710726 , 0.0771484375 , 0.857421875 , 0.48828125 , 23.9902319902 , 32.2368742369 , -84.7155067155 , -4.37927246094 , 4.95910644531 , -0.091552734375 
2018/05/16 12:17:15.003277 , 0.058349609375 , 0.90087890625 , 0.550048828125 , 23.6903540904 , 33.5863247863 , -85.1653235653 , -4.37927246094 , 4.95910644531 , -0.091552734375 
2018/05/16 12:17:15.295831 , 0.058349609375 , 0.90087890625 , 0.550048828125 , 23.6903540904 , 33.5863247863 , -85.1653235653 , -4.37927246094 , 4.95910644531 , -0.091552734375 
2018/05/16 12:17:15.588296 , 0.058349609375 , 0.90087890625 , 0.550048828125 , 23.6903540904 , 33.5863247863 , -85.1653235653 , -4.37927246094 , 4.95910644531 , -0.091552734375 
2018/05/16 12:17:15.929536 , 0.015869140625 , 0.88818359375 , 0.55224609375 , 23.6903540904 , 33.5863247863 , -85.1653235653 , -4.36401367188 , 4.42504882812 , -1.78527832031 
2018/05/16 12:17:16.222220 , 0.015869140625 , 0.88818359375 , 0.55224609375 , 23.6903540904 , 33.5863247863 , -85.1653235653 , -4.36401367188 , 4.42504882812 , -1.78527832031 
2018/05/16 12:17:16.514596 , 0.015869140625 , 0.88818359375 , 0.55224609375 , 23.6903540904 , 33.5863247863 , -85.1653235653 , -4.36401367188 , 4.42504882812 , -1.78527832031 
2018/05/16 12:17:16.807131 , 0.015869140625 , 0.88818359375 , 0.55224609375 , 23.6903540904 , 33.5863247863 , -85.1653235653 , -2.12097167969 , 2.34985351562 , 0.503540039062 
2018/05/16 12:17:17.099832 , 0.039306640625 , 0.8388671875 , 0.559814453125 , 23.6903540904 , 33.5863247863 , -85.1653235653 , -2.12097167969 , 2.34985351562 , 0.503540039062 
2018/05/16 12:17:17.392140 , 0.039306640625 , 0.8388671875 , 0.559814453125 , 23.6903540904 , 33.5863247863 , -85.1653235653 , -2.12097167969 , 2.34985351562 , 0.503540039062 
2018/05/16 12:17:17.684585 , 0.039306640625 , 0.8388671875 , 0.559814453125 , 23.6903540904 , 33.5863247863 , -85.1653235653 , -2.3193359375 , 2.93731689453 , 0.42724609375 
2018/05/16 12:17:17.977264 , 0.0732421875 , 0.870361328125 , 0.586181640625 , 23.8402930403 , 34.485958486 , -85.915018315 , -2.3193359375 , 2.93731689453 , 0.42724609375 
2018/05/16 12:17:18.269760 , 0.0732421875 , 0.870361328125 , 0.586181640625 , 23.8402930403 , 34.485958486 , -85.915018315 , -2.3193359375 , 2.93731689453 , 0.42724609375 
2018/05/16 12:17:18.562161 , 0.0732421875 , 0.870361328125 , 0.586181640625 , 23.8402930403 , 34.485958486 , -85.915018315 , -2.3193359375 , 2.93731689453 , 0.42724609375 
2018/05/16 12:17:18.854641 , 0.0732421875 , 0.870361328125 , 0.586181640625 , 22.9406593407 , 33.8862026862 , -85.1653235653 , -3.49426269531 , 3.85284423828 , 0.297546386719 
2018/05/16 12:17:19.147185 , 0.017578125 , 0.876708984375 , 0.5859375 , 22.9406593407 , 33.8862026862 , -85.1653235653 , -3.49426269531 , 3.85284423828 , 0.297546386719 
2018/05/16 12:17:19.439726 , 0.017578125 , 0.876708984375 , 0.5859375 , 22.9406593407 , 33.8862026862 , -85.1653235653 , -3.49426269531 , 3.85284423828 , 0.297546386719 
2018/05/16 12:17:19.732198 , 0.017578125 , 0.876708984375 , 0.5859375 , 22.9406593407 , 33.8862026862 , -85.1653235653 , -4.95910644531 , 4.47082519531 , 0.480651855469 
2018/05/16 12:17:20.024708 , 0.005126953125 , 0.871826171875 , 0.55322265625 , 23.9902319902 , 33.2864468864 , -85.7650793651 , -4.95910644531 , 4.47082519531 , 0.480651855469 
2018/05/16 12:17:20.317199 , 0.005126953125 , 0.871826171875 , 0.55322265625 , 23.9902319902 , 33.2864468864 , -85.7650793651 , -4.95910644531 , 4.47082519531 , 0.480651855469 
2018/05/16 12:17:20.658503 , 0.005126953125 , 0.871826171875 , 0.55322265625 , 23.9902319902 , 33.2864468864 , -85.7650793651 , -4.95910644531 , 4.47082519531 , 0.480651855469 
2018/05/16 12:17:20.950949 , 0.08740234375 , 0.880859375 , 0.520751953125 , 23.5404151404 , 33.4363858364 , -85.3152625153 , -3.81469726562 , 2.63977050781 , -0.335693359375 
2018/05/16 12:17:21.243601 , 0.08740234375 , 0.880859375 , 0.520751953125 , 23.5404151404 , 33.4363858364 , -85.3152625153 , -3.81469726562 , 2.63977050781 , -0.335693359375 
2018/05/16 12:17:21.536028 , 0.08740234375 , 0.880859375 , 0.520751953125 , 23.5404151404 , 33.4363858364 , -85.3152625153 , -3.81469726562 , 2.63977050781 , -0.335693359375 
2018/05/16 12:17:21.925999 , -0.000244140625 , 0.88134765625 , 0.51025390625 , 23.2405372405 , 34.9357753358 , -85.1653235653 , -3.31878662109 , 3.39508056641 , -0.54931640625 
2018/05/16 12:17:22.218644 , -0.000244140625 , 0.88134765625 , 0.51025390625 , 23.2405372405 , 34.9357753358 , -85.1653235653 , -3.31878662109 , 3.39508056641 , -0.54931640625 
2018/05/16 12:17:22.511028 , -0.000244140625 , 0.88134765625 , 0.51025390625 , 23.2405372405 , 34.9357753358 , -85.1653235653 , -3.31878662109 , 3.39508056641 , -0.54931640625 
2018/05/16 12:17:22.803651 , -0.000244140625 , 0.88134765625 , 0.51025390625 , 23.0905982906 , 33.7362637363 , -85.3152625153 , -3.28826904297 , 4.00543212891 , 0.473022460938 
2018/05/16 12:17:23.144990 , 0.072021484375 , 0.840087890625 , 0.557861328125 , 23.0905982906 , 33.7362637363 , -85.3152625153 , -3.28826904297 , 4.00543212891 , 0.473022460938 
2018/05/16 12:17:23.437445 , 0.072021484375 , 0.840087890625 , 0.557861328125 , 23.0905982906 , 33.7362637363 , -85.3152625153 , -3.28826904297 , 4.00543212891 , 0.473022460938 
2018/05/16 12:17:23.778568 , 0.072021484375 , 0.840087890625 , 0.557861328125 , 23.0905982906 , 31.936996337 , -86.3648351648 , -1.44195556641 , 3.26538085938 , -0.717163085938 
2018/05/16 12:17:24.071301 , 0.037353515625 , 0.88232421875 , 0.53759765625 , 23.0905982906 , 31.936996337 , -86.3648351648 , -1.44195556641 , 3.26538085938 , -0.717163085938 
2018/05/16 12:17:24.363628 , 0.037353515625 , 0.88232421875 , 0.53759765625 , 23.0905982906 , 31.936996337 , -86.3648351648 , -1.44195556641 , 3.26538085938 , -0.717163085938 
2018/05/16 12:17:24.656091 , 0.037353515625 , 0.88232421875 , 0.53759765625 , 23.0905982906 , 31.936996337 , -86.3648351648 , -4.34112548828 , 4.38690185547 , 0.808715820312 
2018/05/16 12:17:24.997479 , 0.031005859375 , 0.92529296875 , 0.5732421875 , 24.1401709402 , 33.7362637363 , -85.915018315 , -4.34112548828 , 4.38690185547 , 0.808715820312 
2018/05/16 12:17:25.338768 , 0.031005859375 , 0.92529296875 , 0.5732421875 , 24.1401709402 , 33.7362637363 , -85.915018315 , -4.34112548828 , 4.38690185547 , 0.808715820312 
2018/05/16 12:17:25.680040 , 0.031005859375 , 0.92529296875 , 0.5732421875 , 24.1401709402 , 33.7362637363 , -85.915018315 , -4.71496582031 , 4.23431396484 , 1.03759765625 
2018/05/16 12:17:25.972348 , 0.0439453125 , 0.95703125 , 0.522705078125 , 23.5404151404 , 33.1365079365 , -87.2644688645 , -4.71496582031 , 4.23431396484 , 1.03759765625 
2018/05/16 12:17:26.265139 , 0.0439453125 , 0.95703125 , 0.522705078125 , 23.5404151404 , 33.1365079365 , -87.2644688645 , -4.71496582031 , 4.23431396484 , 1.03759765625 
2018/05/16 12:17:26.557415 , 0.0439453125 , 0.95703125 , 0.522705078125 , 23.5404151404 , 33.1365079365 , -87.2644688645 , -4.71496582031 , 4.23431396484 , 1.03759765625 
2018/05/16 12:17:26.898654 , 0.050537109375 , 0.892333984375 , 0.564697265625 , 23.0905982906 , 31.936996337 , -85.915018315 , -5.02777099609 , 3.73077392578 , -0.953674316406 
2018/05/16 12:17:27.191312 , 0.050537109375 , 0.892333984375 , 0.564697265625 , 23.0905982906 , 31.936996337 , -85.915018315 , -5.02777099609 , 3.73077392578 , -0.953674316406 
2018/05/16 12:17:27.483684 , 0.050537109375 , 0.892333984375 , 0.564697265625 , 23.0905982906 , 31.936996337 , -85.915018315 , -5.02777099609 , 3.73077392578 , -0.953674316406 
2018/05/16 12:17:27.824887 , 0.050537109375 , 0.892333984375 , 0.564697265625 , 22.6407814408 , 33.8862026862 , -84.7155067155 , -4.98199462891 , 5.06591796875 , -1.44195556641 
2018/05/16 12:17:28.117406 , 0.025146484375 , 0.844970703125 , 0.5458984375 , 22.6407814408 , 33.8862026862 , -84.7155067155 , -4.98199462891 , 5.06591796875 , -1.44195556641 
2018/05/16 12:17:28.507462 , 0.025146484375 , 0.844970703125 , 0.5458984375 , 22.6407814408 , 33.8862026862 , -84.7155067155 , -4.98199462891 , 5.06591796875 , -1.44195556641 
2018/05/16 12:17:28.799955 , 0.025146484375 , 0.844970703125 , 0.5458984375 , 24.8898656899 , 34.1860805861 , -85.3152625153 , -4.79125976562 , 4.71496582031 , -0.312805175781 
2018/05/16 12:17:29.092472 , 0.003662109375 , 0.89404296875 , 0.528564453125 , 24.8898656899 , 34.1860805861 , -85.3152625153 , -4.79125976562 , 4.71496582031 , -0.312805175781 
2018/05/16 12:17:29.384981 , 0.003662109375 , 0.89404296875 , 0.528564453125 , 24.8898656899 , 34.1860805861 , -85.3152625153 , -4.79125976562 , 4.71496582031 , -0.312805175781 
2018/05/16 12:17:29.677428 , 0.003662109375 , 0.89404296875 , 0.528564453125 , 24.8898656899 , 34.1860805861 , -85.3152625153 , -4.30297851562 , 3.33404541016 , -0.335693359375 
2018/05/16 12:17:30.018680 , -0.01025390625 , 0.863525390625 , 0.5341796875 , 22.9406593407 , 32.8366300366 , -84.7155067155 , -4.30297851562 , 3.33404541016 , -0.335693359375 
2018/05/16 12:17:30.359884 , -0.01025390625 , 0.863525390625 , 0.5341796875 , 22.9406593407 , 32.8366300366 , -84.7155067155 , -4.30297851562 , 3.33404541016 , -0.335693359375 
2018/05/16 12:17:30.652223 , -0.01025390625 , 0.863525390625 , 0.5341796875 , 22.9406593407 , 32.8366300366 , -84.7155067155 , -5.06591796875 , 5.13458251953 , -0.587463378906 
2018/05/16 12:17:30.993276 , 0.0078125 , 0.85400390625 , 0.54150390625 , 24.58998779 , 34.7858363858 , -85.3152625153 , -5.06591796875 , 5.13458251953 , -0.587463378906 
2018/05/16 12:17:31.285747 , 0.0078125 , 0.85400390625 , 0.54150390625 , 24.58998779 , 34.7858363858 , -85.3152625153 , -5.06591796875 , 5.13458251953 , -0.587463378906 
2018/05/16 12:17:31.578091 , 0.0078125 , 0.85400390625 , 0.54150390625 , 24.58998779 , 34.7858363858 , -85.3152625153 , -5.06591796875 , 5.13458251953 , -0.587463378906 
2018/05/16 12:17:31.870499 , -0.016357421875 , 0.87744140625 , 0.55517578125 , 22.4908424908 , 33.1365079365 , -85.915018315 , -3.94439697266 , 4.79125976562 , 0.259399414062 
2018/05/16 12:17:32.162653 , -0.016357421875 , 0.87744140625 , 0.55517578125 , 22.4908424908 , 33.1365079365 , -85.915018315 , -3.94439697266 , 4.79125976562 , 0.259399414062 
2018/05/16 12:17:32.454993 , -0.016357421875 , 0.87744140625 , 0.55517578125 , 22.4908424908 , 33.1365079365 , -85.915018315 , -3.94439697266 , 4.79125976562 , 0.259399414062 
2018/05/16 12:17:32.845114 , -0.016357421875 , 0.87744140625 , 0.55517578125 , 23.0905982906 , 33.7362637363 , -85.915018315 , -4.69970703125 , 4.30297851562 , -0.167846679688 
2018/05/16 12:17:33.137559 , 0.0244140625 , 0.871826171875 , 0.513916015625 , 23.0905982906 , 33.7362637363 , -85.915018315 , -4.69970703125 , 4.30297851562 , -0.167846679688 
2018/05/16 12:17:33.429927 , 0.0244140625 , 0.871826171875 , 0.513916015625 , 23.0905982906 , 33.7362637363 , -85.915018315 , -4.69970703125 , 4.30297851562 , -0.167846679688 
2018/05/16 12:17:33.722141 , 0.0244140625 , 0.871826171875 , 0.513916015625 , 23.0905982906 , 35.2356532357 , -85.3152625153 , -3.92913818359 , 3.32641601562 , 0.617980957031 
2018/05/16 12:17:34.063291 , 0.02880859375 , 0.8662109375 , 0.555419921875 , 23.0905982906 , 35.2356532357 , -85.3152625153 , -3.92913818359 , 3.32641601562 , 0.617980957031 
2018/05/16 12:17:34.355839 , 0.02880859375 , 0.8662109375 , 0.555419921875 , 23.0905982906 , 35.2356532357 , -85.3152625153 , -3.92913818359 , 3.32641601562 , 0.617980957031 
2018/05/16 12:17:34.648144 , 0.02880859375 , 0.8662109375 , 0.555419921875 , 23.0905982906 , 35.2356532357 , -85.3152625153 , -3.92913818359 , 3.32641601562 , 0.617980957031 
2018/05/16 12:17:34.940406 , 0.096435546875 , 0.85888671875 , 0.520751953125 , 23.6903540904 , 34.6358974359 , -86.5147741148 , -3.18145751953 , 3.77655029297 , -0.953674316406 
2018/05/16 12:17:35.232931 , 0.096435546875 , 0.85888671875 , 0.520751953125 , 23.6903540904 , 34.6358974359 , -86.5147741148 , -3.18145751953 , 3.77655029297 , -0.953674316406 
2018/05/16 12:17:35.525194 , 0.096435546875 , 0.85888671875 , 0.520751953125 , 23.6903540904 , 34.6358974359 , -86.5147741148 , -3.18145751953 , 3.77655029297 , -0.953674316406 
2018/05/16 12:17:35.817559 , 0.096435546875 , 0.85888671875 , 0.520751953125 , 23.8402930403 , 33.7362637363 , -85.6151404151 , -3.50952148438 , 2.69317626953 , 1.99127197266 
2018/05/16 12:17:36.110230 , 0.03076171875 , 0.916748046875 , 0.5810546875 , 23.8402930403 , 33.7362637363 , -85.6151404151 , -3.50952148438 , 2.69317626953 , 1.99127197266 
2018/05/16 12:17:36.402485 , 0.03076171875 , 0.916748046875 , 0.5810546875 , 23.8402930403 , 33.7362637363 , -85.6151404151 , -3.50952148438 , 2.69317626953 , 1.99127197266 
2018/05/16 12:17:36.694769 , 0.03076171875 , 0.916748046875 , 0.5810546875 , 23.8402930403 , 33.7362637363 , -85.6151404151 , -4.39453125 , 3.81469726562 , -0.778198242188 
2018/05/16 12:17:36.987157 , 0.056640625 , 0.8291015625 , 0.55419921875 , 23.9902319902 , 33.8862026862 , -84.7155067155 , -4.39453125 , 3.81469726562 , -0.778198242188 
2018/05/16 12:17:37.328332 , 0.056640625 , 0.8291015625 , 0.55419921875 , 23.9902319902 , 33.8862026862 , -84.7155067155 , -4.39453125 , 3.81469726562 , -0.778198242188 
2018/05/16 12:17:37.620686 , 0.056640625 , 0.8291015625 , 0.55419921875 , 23.9902319902 , 33.8862026862 , -84.7155067155 , -4.39453125 , 3.81469726562 , -0.778198242188 
2018/05/16 12:17:37.913129 , -0.000732421875 , 0.8583984375 , 0.5087890625 , 24.7399267399 , 33.8862026862 , -84.1157509158 , -4.79125976562 , 5.82122802734 , -0.320434570312 
2018/05/16 12:17:38.205696 , -0.000732421875 , 0.8583984375 , 0.5087890625 , 24.7399267399 , 33.8862026862 , -84.1157509158 , -4.79125976562 , 5.82122802734 , -0.320434570312 
2018/05/16 12:17:38.497890 , -0.000732421875 , 0.8583984375 , 0.5087890625 , 24.7399267399 , 33.8862026862 , -84.1157509158 , -4.79125976562 , 5.82122802734 , -0.320434570312 
2018/05/16 12:17:38.790423 , -0.000732421875 , 0.8583984375 , 0.5087890625 , 23.9902319902 , 33.2864468864 , -84.4156288156 , -3.53240966797 , 4.28771972656 , -1.88446044922 
2018/05/16 12:17:39.082865 , 0.0029296875 , 0.913818359375 , 0.53955078125 , 23.9902319902 , 33.2864468864 , -84.4156288156 , -3.53240966797 , 4.28771972656 , -1.88446044922 
2018/05/16 12:17:39.375091 , 0.0029296875 , 0.913818359375 , 0.53955078125 , 23.9902319902 , 33.2864468864 , -84.4156288156 , -3.53240966797 , 4.28771972656 , -1.88446044922 
2018/05/16 12:17:39.667477 , 0.0029296875 , 0.913818359375 , 0.53955078125 , 23.9902319902 , 33.2864468864 , -84.4156288156 , -4.08172607422 , 4.23431396484 , -1.89208984375 
2018/05/16 12:17:39.959923 , 0.000244140625 , 0.87841796875 , 0.552001953125 , 22.9406593407 , 34.6358974359 , -86.5147741148 , -4.08172607422 , 4.23431396484 , -1.89208984375 
2018/05/16 12:17:40.252351 , 0.000244140625 , 0.87841796875 , 0.552001953125 , 22.9406593407 , 34.6358974359 , -86.5147741148 , -4.08172607422 , 4.23431396484 , -1.89208984375 
2018/05/16 12:17:40.544665 , 0.000244140625 , 0.87841796875 , 0.552001953125 , 22.9406593407 , 34.6358974359 , -86.5147741148 , -4.08172607422 , 4.23431396484 , -1.89208984375 
2018/05/16 12:17:40.837121 , 0.000244140625 , 0.87841796875 , 0.552001953125 , 24.1401709402 , 34.7858363858 , -85.3152625153 , -6.05773925781 , 3.92150878906 , 1.708984375 
2018/05/16 12:17:41.129650 , 0.04736328125 , 0.859375 , 0.51416015625 , 24.1401709402 , 34.7858363858 , -85.3152625153 , -6.05773925781 , 3.92150878906 , 1.708984375 
2018/05/16 12:17:41.421882 , 0.04736328125 , 0.859375 , 0.51416015625 , 24.1401709402 , 34.7858363858 , -85.3152625153 , -6.05773925781 , 3.92150878906 , 1.708984375 
2018/05/16 12:17:41.763008 , 0.04736328125 , 0.859375 , 0.51416015625 , 23.5404151404 , 34.7858363858 , -85.915018315 , -6.30950927734 , 7.70568847656 , 0.457763671875 
2018/05/16 12:17:42.055610 , 0.02783203125 , 0.816650390625 , 0.524658203125 , 23.5404151404 , 34.7858363858 , -85.915018315 , -6.30950927734 , 7.70568847656 , 0.457763671875 
2018/05/16 12:17:42.347880 , 0.02783203125 , 0.816650390625 , 0.524658203125 , 23.5404151404 , 34.7858363858 , -85.915018315 , -6.30950927734 , 7.70568847656 , 0.457763671875 
2018/05/16 12:17:42.640296 , 0.02783203125 , 0.816650390625 , 0.524658203125 , 23.5404151404 , 34.7858363858 , -85.915018315 , -6.30950927734 , 7.70568847656 , 0.457763671875 
2018/05/16 12:17:42.932696 , 0.106201171875 , 0.886474609375 , 0.56982421875 , 23.6903540904 , 33.5863247863 , -85.7650793651 , -3.60107421875 , 3.45611572266 , 0.282287597656 
2018/05/16 12:17:43.225446 , 0.106201171875 , 0.886474609375 , 0.56982421875 , 23.6903540904 , 33.5863247863 , -85.7650793651 , -3.60107421875 , 3.45611572266 , 0.282287597656 
2018/05/16 12:17:43.615115 , 0.106201171875 , 0.886474609375 , 0.56982421875 , 23.6903540904 , 33.5863247863 , -85.7650793651 , -3.60107421875 , 3.45611572266 , 0.282287597656 
2018/05/16 12:17:43.907379 , 0.042236328125 , 0.828125 , 0.526611328125 , 23.2405372405 , 33.5863247863 , -85.1653235653 , -3.07464599609 , 4.56237792969 , 0.198364257812 
2018/05/16 12:17:44.248794 , 0.042236328125 , 0.828125 , 0.526611328125 , 23.2405372405 , 33.5863247863 , -85.1653235653 , -3.07464599609 , 4.56237792969 , 0.198364257812 
2018/05/16 12:17:44.541009 , 0.042236328125 , 0.828125 , 0.526611328125 , 23.2405372405 , 33.5863247863 , -85.1653235653 , -3.07464599609 , 4.56237792969 , 0.198364257812 
2018/05/16 12:17:44.833639 , 0.042236328125 , 0.828125 , 0.526611328125 , 24.7399267399 , 33.5863247863 , -85.1653235653 , -4.79888916016 , 4.80651855469 , -0.205993652344 
2018/05/16 12:17:45.174686 , 0.06591796875 , 0.852783203125 , 0.529296875 , 24.7399267399 , 33.5863247863 , -85.1653235653 , -4.79888916016 , 4.80651855469 , -0.205993652344 
2018/05/16 12:17:45.467069 , 0.06591796875 , 0.852783203125 , 0.529296875 , 24.7399267399 , 33.5863247863 , -85.1653235653 , -4.79888916016 , 4.80651855469 , -0.205993652344 
2018/05/16 12:17:45.759344 , 0.06591796875 , 0.852783203125 , 0.529296875 , 23.6903540904 , 33.2864468864 , -86.2148962149 , -3.76892089844 , 3.80706787109 , -0.755310058594 
2018/05/16 12:17:46.100819 , 0.030517578125 , 0.865966796875 , 0.532958984375 , 23.6903540904 , 33.2864468864 , -86.2148962149 , -3.76892089844 , 3.80706787109 , -0.755310058594 
2018/05/16 12:17:46.392922 , 0.030517578125 , 0.865966796875 , 0.532958984375 , 23.6903540904 , 33.2864468864 , -86.2148962149 , -3.76892089844 , 3.80706787109 , -0.755310058594 
2018/05/16 12:17:46.685360 , 0.030517578125 , 0.865966796875 , 0.532958984375 , 23.6903540904 , 33.2864468864 , -86.2148962149 , -2.73895263672 , 4.70733642578 , 0.556945800781 
2018/05/16 12:17:46.977720 , 0.044189453125 , 0.892578125 , 0.52734375 , 23.6903540904 , 33.2864468864 , -86.2148962149 , -2.73895263672 , 4.70733642578 , 0.556945800781 
2018/05/16 12:17:47.318966 , 0.044189453125 , 0.892578125 , 0.52734375 , 23.6903540904 , 33.2864468864 , -86.2148962149 , -2.73895263672 , 4.70733642578 , 0.556945800781 
2018/05/16 12:17:47.611308 , 0.044189453125 , 0.892578125 , 0.52734375 , 23.6903540904 , 33.2864468864 , -86.2148962149 , -2.73895263672 , 4.70733642578 , 0.556945800781 
2018/05/16 12:17:47.903741 , 0.04248046875 , 0.849365234375 , 0.51416015625 , 23.8402930403 , 32.3868131868 , -85.0153846154 , -4.94384765625 , 5.24139404297 , -0.953674316406 
2018/05/16 12:17:48.196409 , 0.04248046875 , 0.849365234375 , 0.51416015625 , 23.8402930403 , 32.3868131868 , -85.0153846154 , -4.94384765625 , 5.24139404297 , -0.953674316406 
2018/05/16 12:17:48.488638 , 0.04248046875 , 0.849365234375 , 0.51416015625 , 23.8402930403 , 32.3868131868 , -85.0153846154 , -4.94384765625 , 5.24139404297 , -0.953674316406 
2018/05/16 12:17:48.781023 , 0.04248046875 , 0.849365234375 , 0.51416015625 , 23.8402930403 , 32.3868131868 , -85.0153846154 , -3.96728515625 , 4.57000732422 , -0.160217285156 
2018/05/16 12:17:49.073837 , 0.0341796875 , 0.883544921875 , 0.540771484375 , 23.8402930403 , 32.3868131868 , -85.0153846154 , -3.96728515625 , 4.57000732422 , -0.160217285156 
2018/05/16 12:17:49.365902 , 0.0341796875 , 0.883544921875 , 0.540771484375 , 23.8402930403 , 32.3868131868 , -85.0153846154 , -3.96728515625 , 4.57000732422 , -0.160217285156 
2018/05/16 12:17:49.658540 , 0.0341796875 , 0.883544921875 , 0.540771484375 , 23.8402930403 , 32.3868131868 , -85.0153846154 , -2.17437744141 , 3.12805175781 , -0.205993652344 
2018/05/16 12:17:49.950718 , 0.041015625 , 0.873291015625 , 0.50634765625 , 23.9902319902 , 33.2864468864 , -86.8146520147 , -2.17437744141 , 3.12805175781 , -0.205993652344 
2018/05/16 12:17:50.292208 , 0.041015625 , 0.873291015625 , 0.50634765625 , 23.9902319902 , 33.2864468864 , -86.8146520147 , -2.17437744141 , 3.12805175781 , -0.205993652344 
2018/05/16 12:17:50.584331 , 0.041015625 , 0.873291015625 , 0.50634765625 , 23.9902319902 , 33.2864468864 , -86.8146520147 , -2.17437744141 , 3.12805175781 , -0.205993652344 
2018/05/16 12:17:50.876795 , -0.0009765625 , 0.920654296875 , 0.590087890625 , 23.9902319902 , 33.2864468864 , -86.8146520147 , -3.73077392578 , 2.99072265625 , -2.41088867188 
2018/05/16 12:17:51.169364 , -0.0009765625 , 0.920654296875 , 0.590087890625 , 23.9902319902 , 33.2864468864 , -86.8146520147 , -3.73077392578 , 2.99072265625 , -2.41088867188 
2018/05/16 12:17:51.461827 , -0.0009765625 , 0.920654296875 , 0.590087890625 , 23.9902319902 , 33.2864468864 , -86.8146520147 , -3.73077392578 , 2.99072265625 , -2.41088867188 
2018/05/16 12:17:51.754037 , -0.0009765625 , 0.920654296875 , 0.590087890625 , 22.7907203907 , 35.2356532357 , -86.3648351648 , -2.73895263672 , 3.10516357422 , -1.09100341797 
2018/05/16 12:17:52.046726 , 0.01513671875 , 0.900634765625 , 0.51416015625 , 22.7907203907 , 35.2356532357 , -86.3648351648 , -2.73895263672 , 3.10516357422 , -1.09100341797 
2018/05/16 12:17:52.339032 , 0.01513671875 , 0.900634765625 , 0.51416015625 , 22.7907203907 , 35.2356532357 , -86.3648351648 , -2.73895263672 , 3.10516357422 , -1.09100341797 
2018/05/16 12:17:52.631331 , 0.01513671875 , 0.900634765625 , 0.51416015625 , 22.7907203907 , 35.2356532357 , -86.3648351648 , -2.73895263672 , 3.10516357422 , -1.09100341797 
2018/05/16 12:17:52.923920 , 0.075927734375 , 0.838134765625 , 0.531982421875 , 22.7907203907 , 35.2356532357 , -86.3648351648 , -4.40979003906 , 3.48663330078 , -0.755310058594 
2018/05/16 12:17:53.216395 , 0.075927734375 , 0.838134765625 , 0.531982421875 , 22.7907203907 , 35.2356532357 , -86.3648351648 , -4.40979003906 , 3.48663330078 , -0.755310058594 
2018/05/16 12:17:53.508632 , 0.075927734375 , 0.838134765625 , 0.531982421875 , 22.7907203907 , 35.2356532357 , -86.3648351648 , -4.40979003906 , 3.48663330078 , -0.755310058594 
2018/05/16 12:17:53.801229 , 0.075927734375 , 0.838134765625 , 0.531982421875 , 22.190964591 , 34.9357753358 , -86.8146520147 , -5.9814453125 , 6.21032714844 , -0.953674316406 
2018/05/16 12:17:54.142467 , 0.083984375 , 0.907958984375 , 0.557373046875 , 22.190964591 , 34.9357753358 , -86.8146520147 , -5.9814453125 , 6.21032714844 , -0.953674316406 
2018/05/16 12:17:54.483549 , 0.083984375 , 0.907958984375 , 0.557373046875 , 22.190964591 , 34.9357753358 , -86.8146520147 , -5.9814453125 , 6.21032714844 , -0.953674316406 
2018/05/16 12:17:54.775808 , 0.083984375 , 0.907958984375 , 0.557373046875 , 22.190964591 , 34.9357753358 , -86.8146520147 , -6.51550292969 , 5.79071044922 , 0.00762939453125 
2018/05/16 12:17:55.117710 , 0.025634765625 , 0.912353515625 , 0.542724609375 , 22.190964591 , 34.9357753358 , -86.8146520147 , -6.51550292969 , 5.79071044922 , 0.00762939453125 
2018/05/16 12:17:55.458195 , 0.025634765625 , 0.912353515625 , 0.542724609375 , 22.190964591 , 34.9357753358 , -86.8146520147 , -6.51550292969 , 5.79071044922 , 0.00762939453125 
2018/05/16 12:17:55.750765 , 0.025634765625 , 0.912353515625 , 0.542724609375 , 22.190964591 , 34.9357753358 , -86.8146520147 , -1.96838378906 , 2.86102294922 , -0.686645507812 
2018/05/16 12:17:56.092048 , -0.0107421875 , 0.9384765625 , 0.511474609375 , 22.190964591 , 34.9357753358 , -86.8146520147 , -1.96838378906 , 2.86102294922 , -0.686645507812 
2018/05/16 12:17:56.384638 , -0.0107421875 , 0.9384765625 , 0.511474609375 , 22.190964591 , 34.9357753358 , -86.8146520147 , -1.96838378906 , 2.86102294922 , -0.686645507812 
2018/05/16 12:17:56.676798 , -0.0107421875 , 0.9384765625 , 0.511474609375 , 22.190964591 , 34.9357753358 , -86.8146520147 , -5.40924072266 , 5.51605224609 , -0.991821289062 
2018/05/16 12:17:57.017900 , -0.00830078125 , 0.8779296875 , 0.53515625 , 24.1401709402 , 34.1860805861 , -85.6151404151 , -5.40924072266 , 5.51605224609 , -0.991821289062 
2018/05/16 12:17:57.310374 , -0.00830078125 , 0.8779296875 , 0.53515625 , 24.1401709402 , 34.1860805861 , -85.6151404151 , -5.40924072266 , 5.51605224609 , -0.991821289062 
2018/05/16 12:17:57.602766 , -0.00830078125 , 0.8779296875 , 0.53515625 , 24.1401709402 , 34.1860805861 , -85.6151404151 , -6.18743896484 , 6.27899169922 , -2.58636474609 
2018/05/16 12:17:57.992625 , 0.02490234375 , 0.824951171875 , 0.5615234375 , 24.1401709402 , 32.6866910867 , -84.5655677656 , -6.18743896484 , 6.27899169922 , -2.58636474609 
2018/05/16 12:17:58.285339 , 0.02490234375 , 0.824951171875 , 0.5615234375 , 24.1401709402 , 32.6866910867 , -84.5655677656 , -6.18743896484 , 6.27899169922 , -2.58636474609 
2018/05/16 12:17:58.577718 , 0.02490234375 , 0.824951171875 , 0.5615234375 , 24.1401709402 , 32.6866910867 , -84.5655677656 , -3.84521484375 , 3.89862060547 , -1.05285644531 
2018/05/16 12:17:58.967453 , 0.009521484375 , 0.8193359375 , 0.556884765625 , 24.1401709402 , 32.6866910867 , -84.5655677656 , -3.84521484375 , 3.89862060547 , -1.05285644531 
2018/05/16 12:17:59.308826 , 0.009521484375 , 0.8193359375 , 0.556884765625 , 24.1401709402 , 32.6866910867 , -84.5655677656 , -3.84521484375 , 3.89862060547 , -1.05285644531 
2018/05/16 12:17:59.601186 , 0.009521484375 , 0.8193359375 , 0.556884765625 , 24.1401709402 , 32.6866910867 , -84.5655677656 , -3.84521484375 , 3.89862060547 , -1.05285644531 
2018/05/16 12:17:59.893732 , 0.029296875 , 0.857666015625 , 0.47900390625 , 24.1401709402 , 32.6866910867 , -84.5655677656 , -3.47900390625 , 4.55474853516 , 0.762939453125 
2018/05/16 12:18:00.186166 , 0.029296875 , 0.857666015625 , 0.47900390625 , 24.1401709402 , 32.6866910867 , -84.5655677656 , -3.47900390625 , 4.55474853516 , 0.762939453125 
2018/05/16 12:18:00.478515 , 0.029296875 , 0.857666015625 , 0.47900390625 , 24.1401709402 , 32.6866910867 , -84.5655677656 , -3.47900390625 , 4.55474853516 , 0.762939453125 
2018/05/16 12:18:00.770857 , 0.029296875 , 0.857666015625 , 0.47900390625 , 23.5404151404 , 33.7362637363 , -86.9645909646 , 0.213623046875 , -0.419616699219 , 0.755310058594 
2018/05/16 12:18:01.063642 , 0.07275390625 , 0.867919921875 , 0.510498046875 , 23.5404151404 , 33.7362637363 , -86.9645909646 , 0.213623046875 , -0.419616699219 , 0.755310058594 
2018/05/16 12:18:01.355744 , 0.07275390625 , 0.867919921875 , 0.510498046875 , 23.5404151404 , 33.7362637363 , -86.9645909646 , 0.213623046875 , -0.419616699219 , 0.755310058594 
2018/05/16 12:18:01.648403 , 0.07275390625 , 0.867919921875 , 0.510498046875 , 23.5404151404 , 33.7362637363 , -86.9645909646 , 0.213623046875 , -0.419616699219 , 0.755310058594 
2018/05/16 12:18:01.940622 , 0.0107421875 , 0.931396484375 , 0.493896484375 , 23.5404151404 , 33.1365079365 , -86.6647130647 , -5.02777099609 , 6.20269775391 , -2.28118896484 
2018/05/16 12:18:02.233231 , 0.0107421875 , 0.931396484375 , 0.493896484375 , 23.5404151404 , 33.1365079365 , -86.6647130647 , -5.02777099609 , 6.20269775391 , -2.28118896484 
2018/05/16 12:18:02.525549 , 0.0107421875 , 0.931396484375 , 0.493896484375 , 23.5404151404 , 33.1365079365 , -86.6647130647 , -5.02777099609 , 6.20269775391 , -2.28118896484 
2018/05/16 12:18:02.866960 , 0.04638671875 , 0.931884765625 , 0.56201171875 , 25.3396825397 , 34.336019536 , -85.7650793651 , -3.49426269531 , 3.04412841797 , -0.175476074219 
2018/05/16 12:18:03.159385 , 0.04638671875 , 0.931884765625 , 0.56201171875 , 25.3396825397 , 34.336019536 , -85.7650793651 , -3.49426269531 , 3.04412841797 , -0.175476074219 
2018/05/16 12:18:03.451890 , 0.04638671875 , 0.931884765625 , 0.56201171875 , 25.3396825397 , 34.336019536 , -85.7650793651 , -3.49426269531 , 3.04412841797 , -0.175476074219 
2018/05/16 12:18:03.744075 , 0.04638671875 , 0.931884765625 , 0.56201171875 , 25.3396825397 , 34.336019536 , -85.7650793651 , -6.81304931641 , 4.98962402344 , -0.251770019531 
2018/05/16 12:18:04.036742 , 0.0205078125 , 0.880859375 , 0.514404296875 , 24.1401709402 , 33.4363858364 , -85.0153846154 , -6.81304931641 , 4.98962402344 , -0.251770019531 
2018/05/16 12:18:04.426454 , 0.0205078125 , 0.880859375 , 0.514404296875 , 24.1401709402 , 33.4363858364 , -85.0153846154 , -6.81304931641 , 4.98962402344 , -0.251770019531 
2018/05/16 12:18:04.719023 , 0.0205078125 , 0.880859375 , 0.514404296875 , 24.1401709402 , 33.4363858364 , -85.0153846154 , -3.35693359375 , 4.53948974609 , -1.12915039062 
2018/05/16 12:18:05.011327 , 0.03515625 , 0.89697265625 , 0.52734375 , 23.6903540904 , 33.5863247863 , -87.1145299145 , -3.35693359375 , 4.53948974609 , -1.12915039062 
2018/05/16 12:18:05.303975 , 0.03515625 , 0.89697265625 , 0.52734375 , 23.6903540904 , 33.5863247863 , -87.1145299145 , -3.35693359375 , 4.53948974609 , -1.12915039062 
2018/05/16 12:18:05.596273 , 0.03515625 , 0.89697265625 , 0.52734375 , 23.6903540904 , 33.5863247863 , -87.1145299145 , -3.35693359375 , 4.53948974609 , -1.12915039062 
2018/05/16 12:18:05.888702 , 0.065185546875 , 0.8662109375 , 0.518310546875 , 22.9406593407 , 35.6854700855 , -86.2148962149 , -5.63812255859 , 7.26318359375 , 0.0228881835938 
2018/05/16 12:18:06.181460 , 0.065185546875 , 0.8662109375 , 0.518310546875 , 22.9406593407 , 35.6854700855 , -86.2148962149 , -5.63812255859 , 7.26318359375 , 0.0228881835938 
2018/05/16 12:18:06.473584 , 0.065185546875 , 0.8662109375 , 0.518310546875 , 22.9406593407 , 35.6854700855 , -86.2148962149 , -5.63812255859 , 7.26318359375 , 0.0228881835938 
2018/05/16 12:18:06.766051 , 0.065185546875 , 0.8662109375 , 0.518310546875 , 22.6407814408 , 34.9357753358 , -84.7155067155 , -3.58581542969 , 3.43322753906 , -0.030517578125 
2018/05/16 12:18:07.107190 , 0.037841796875 , 0.893310546875 , 0.513427734375 , 22.6407814408 , 34.9357753358 , -84.7155067155 , -3.58581542969 , 3.43322753906 , -0.030517578125 
2018/05/16 12:18:07.399766 , 0.037841796875 , 0.893310546875 , 0.513427734375 , 22.6407814408 , 34.9357753358 , -84.7155067155 , -3.58581542969 , 3.43322753906 , -0.030517578125 
2018/05/16 12:18:07.692179 , 0.037841796875 , 0.893310546875 , 0.513427734375 , 22.6407814408 , 34.9357753358 , -84.7155067155 , -3.24249267578 , 3.67736816406 , -0.450134277344 
