Connecting to 24:71:89:C1:0D:07
time ,acc-x,acc-y,acc-z ,mag-x,mag-y,mag-z ,gyr-x,gyr-y,gyr-z 
2018/05/16 12:27:11.097678 , 0.0 , 0.0 , 0.0 , 0.0 , 0.0 , 0.0 , 0.0 , 0.0 , 0.0 
2018/05/16 12:27:11.357168 , 0.0 , 0.0 , 0.0 , 0.0 , 0.0 , 0.0 , 0.0 , 0.0 , 0.0 
2018/05/16 12:27:11.649671 , 0.0 , 0.0 , 0.0 , 0.0 , 0.0 , 0.0 , -5.39398193359 , 4.96673583984 , 1.05285644531 
2018/05/16 12:27:11.942185 , -0.001953125 , 0.144287109375 , 1.00512695312 , 0.0 , 0.0 , 0.0 , -5.39398193359 , 4.96673583984 , 1.05285644531 
2018/05/16 12:27:12.234656 , -0.001953125 , 0.144287109375 , 1.00512695312 , 0.0 , 0.0 , 0.0 , -5.39398193359 , 4.96673583984 , 1.05285644531 
2018/05/16 12:27:12.527321 , -0.001953125 , 0.144287109375 , 1.00512695312 , 0.0 , 0.0 , 0.0 , -5.39398193359 , 4.96673583984 , 1.05285644531 
2018/05/16 12:27:12.819655 , -0.001953125 , 0.144287109375 , 1.00512695312 , 0.0 , 0.0 , 0.0 , -4.44030761719 , 7.91168212891 , 0.602722167969 
2018/05/16 12:27:13.112314 , 0.053466796875 , 0.181396484375 , 1.02587890625 , 0.0 , 0.0 , 0.0 , -4.44030761719 , 7.91168212891 , 0.602722167969 
2018/05/16 12:27:13.404753 , 0.053466796875 , 0.181396484375 , 1.02587890625 , 0.0 , 0.0 , 0.0 , -4.44030761719 , 7.91168212891 , 0.602722167969 
2018/05/16 12:27:13.745917 , 0.053466796875 , 0.181396484375 , 1.02587890625 , 44.3819291819 , 26.5391941392 , -85.1653235653 , -4.94384765625 , 4.11224365234 , -1.25122070312 
2018/05/16 12:27:14.038374 , 0.03466796875 , 0.15185546875 , 1.01953125 , 44.3819291819 , 26.5391941392 , -85.1653235653 , -4.94384765625 , 4.11224365234 , -1.25122070312 
2018/05/16 12:27:14.331009 , 0.03466796875 , 0.15185546875 , 1.01953125 , 44.3819291819 , 26.5391941392 , -85.1653235653 , -4.94384765625 , 4.11224365234 , -1.25122070312 
2018/05/16 12:27:14.623495 , 0.03466796875 , 0.15185546875 , 1.01953125 , 44.3819291819 , 26.5391941392 , -85.1653235653 , -4.94384765625 , 4.11224365234 , -1.25122070312 
2018/05/16 12:27:14.916012 , 0.064208984375 , 0.088623046875 , 1.00756835938 , 45.1316239316 , 27.2888888889 , -85.4652014652 , -5.19561767578 , 4.18853759766 , -0.205993652344 
2018/05/16 12:27:15.208163 , 0.064208984375 , 0.088623046875 , 1.00756835938 , 45.1316239316 , 27.2888888889 , -85.4652014652 , -5.19561767578 , 4.18853759766 , -0.205993652344 
2018/05/16 12:27:15.500772 , 0.064208984375 , 0.088623046875 , 1.00756835938 , 45.1316239316 , 27.2888888889 , -85.4652014652 , -5.19561767578 , 4.18853759766 , -0.205993652344 
2018/05/16 12:27:15.793483 , 0.064208984375 , 0.088623046875 , 1.00756835938 , 45.4315018315 , 27.5887667888 , -84.4156288156 , -4.37164306641 , 5.79071044922 , -0.389099121094 
2018/05/16 12:27:16.086015 , 0.012939453125 , 0.15771484375 , 1.05200195312 , 45.4315018315 , 27.5887667888 , -84.4156288156 , -4.37164306641 , 5.79071044922 , -0.389099121094 
2018/05/16 12:27:16.378503 , 0.012939453125 , 0.15771484375 , 1.05200195312 , 45.4315018315 , 27.5887667888 , -84.4156288156 , -4.37164306641 , 5.79071044922 , -0.389099121094 
2018/05/16 12:27:16.670943 , 0.012939453125 , 0.15771484375 , 1.05200195312 , 45.4315018315 , 27.5887667888 , -84.4156288156 , -2.06756591797 , 3.00598144531 , -1.21307373047 
2018/05/16 12:27:16.963445 , 0.04345703125 , 0.1396484375 , 1.00439453125 , 44.6818070818 , 26.5391941392 , -84.7155067155 , -2.06756591797 , 3.00598144531 , -1.21307373047 
2018/05/16 12:27:17.255973 , 0.04345703125 , 0.1396484375 , 1.00439453125 , 44.6818070818 , 26.5391941392 , -84.7155067155 , -2.06756591797 , 3.00598144531 , -1.21307373047 
2018/05/16 12:27:17.548600 , 0.04345703125 , 0.1396484375 , 1.00439453125 , 44.6818070818 , 26.5391941392 , -84.7155067155 , -2.06756591797 , 3.00598144531 , -1.21307373047 
2018/05/16 12:27:17.840978 , 0.015625 , 0.113037109375 , 0.997802734375 , 45.2815628816 , 26.0893772894 , -85.3152625153 , -3.76129150391 , 4.67681884766 , -1.12915039062 
2018/05/16 12:27:18.133456 , 0.015625 , 0.113037109375 , 0.997802734375 , 45.2815628816 , 26.0893772894 , -85.3152625153 , -3.76129150391 , 4.67681884766 , -1.12915039062 
2018/05/16 12:27:18.426073 , 0.015625 , 0.113037109375 , 0.997802734375 , 45.2815628816 , 26.0893772894 , -85.3152625153 , -3.76129150391 , 4.67681884766 , -1.12915039062 
2018/05/16 12:27:18.718477 , 0.015625 , 0.113037109375 , 0.997802734375 , 45.2815628816 , 26.0893772894 , -85.3152625153 , -4.69207763672 , 4.76837158203 , -0.1220703125 
2018/05/16 12:27:19.011031 , 0.07421875 , 0.098876953125 , 1.09130859375 , 44.3819291819 , 25.4896214896 , -85.1653235653 , -4.69207763672 , 4.76837158203 , -0.1220703125 
2018/05/16 12:27:19.303555 , 0.07421875 , 0.098876953125 , 1.09130859375 , 44.3819291819 , 25.4896214896 , -85.1653235653 , -4.69207763672 , 4.76837158203 , -0.1220703125 
2018/05/16 12:27:19.596100 , 0.07421875 , 0.098876953125 , 1.09130859375 , 44.3819291819 , 25.4896214896 , -85.1653235653 , -4.69207763672 , 4.76837158203 , -0.1220703125 
2018/05/16 12:27:19.888417 , 0.035400390625 , 0.16552734375 , 1.05883789062 , 44.231990232 , 24.8898656899 , -85.0153846154 , -2.43377685547 , 4.91333007812 , -0.762939453125 
2018/05/16 12:27:20.181128 , 0.035400390625 , 0.16552734375 , 1.05883789062 , 44.231990232 , 24.8898656899 , -85.0153846154 , -2.43377685547 , 4.91333007812 , -0.762939453125 
2018/05/16 12:27:20.473707 , 0.035400390625 , 0.16552734375 , 1.05883789062 , 44.231990232 , 24.8898656899 , -85.0153846154 , -2.43377685547 , 4.91333007812 , -0.762939453125 
2018/05/16 12:27:20.766077 , 0.035400390625 , 0.16552734375 , 1.05883789062 , 45.1316239316 , 29.0881562882 , -84.7155067155 , -3.88336181641 , 4.36401367188 , 0.0381469726562 
2018/05/16 12:27:21.058449 , 0.014892578125 , 0.196533203125 , 1.01245117188 , 45.1316239316 , 29.0881562882 , -84.7155067155 , -3.88336181641 , 4.36401367188 , 0.0381469726562 
2018/05/16 12:27:21.399882 , 0.014892578125 , 0.196533203125 , 1.01245117188 , 45.1316239316 , 29.0881562882 , -84.7155067155 , -3.88336181641 , 4.36401367188 , 0.0381469726562 
2018/05/16 12:27:21.692291 , 0.014892578125 , 0.196533203125 , 1.01245117188 , 45.1316239316 , 29.0881562882 , -84.7155067155 , -3.13568115234 , 5.46264648438 , 1.53350830078 
2018/05/16 12:27:21.984741 , 0.089599609375 , 0.15185546875 , 1.02734375 , 44.9816849817 , 26.3892551893 , -84.2656898657 , -3.13568115234 , 5.46264648438 , 1.53350830078 
2018/05/16 12:27:22.277238 , 0.089599609375 , 0.15185546875 , 1.02734375 , 44.9816849817 , 26.3892551893 , -84.2656898657 , -3.13568115234 , 5.46264648438 , 1.53350830078 
2018/05/16 12:27:22.618681 , 0.089599609375 , 0.15185546875 , 1.02734375 , 44.9816849817 , 26.3892551893 , -84.2656898657 , -3.13568115234 , 5.46264648438 , 1.53350830078 
2018/05/16 12:27:22.911058 , 0.02587890625 , 0.14208984375 , 1.03344726562 , 45.2815628816 , 25.6395604396 , -85.6151404151 , -5.77545166016 , 5.18035888672 , 0.42724609375 
2018/05/16 12:27:23.203616 , 0.02587890625 , 0.14208984375 , 1.03344726562 , 45.2815628816 , 25.6395604396 , -85.6151404151 , -5.77545166016 , 5.18035888672 , 0.42724609375 
2018/05/16 12:27:23.496284 , 0.02587890625 , 0.14208984375 , 1.03344726562 , 45.2815628816 , 25.6395604396 , -85.6151404151 , -5.77545166016 , 5.18035888672 , 0.42724609375 
2018/05/16 12:27:23.788735 , 0.02587890625 , 0.14208984375 , 1.03344726562 , 45.5814407814 , 27.4388278388 , -85.6151404151 , -3.92913818359 , 4.37164306641 , 1.03759765625 
2018/05/16 12:27:33.730171 , -0.01611328125 , 0.114013671875 , 1.02587890625 , 45.5814407814 , 27.4388278388 , -85.6151404151 , -3.92913818359 , 4.37164306641 , 1.03759765625 
2018/05/16 12:27:34.022774 , -0.01611328125 , 0.114013671875 , 1.02587890625 , 45.5814407814 , 27.4388278388 , -85.6151404151 , -3.92913818359 , 4.37164306641 , 1.03759765625 
2018/05/16 12:27:34.315361 , -0.01611328125 , 0.114013671875 , 1.02587890625 , 45.5814407814 , 27.4388278388 , -85.6151404151 , -5.31005859375 , 6.00433349609 , -1.25885009766 
2018/05/16 12:27:34.607728 , 0.00390625 , 0.174560546875 , 0.97216796875 , 45.5814407814 , 27.4388278388 , -85.3152625153 , -5.31005859375 , 6.00433349609 , -1.25885009766 
2018/05/16 12:27:34.900140 , 0.00390625 , 0.174560546875 , 0.97216796875 , 45.5814407814 , 27.4388278388 , -85.3152625153 , -5.31005859375 , 6.00433349609 , -1.25885009766 
2018/05/16 12:27:35.192926 , 0.00390625 , 0.174560546875 , 0.97216796875 , 45.5814407814 , 27.4388278388 , -85.3152625153 , -5.31005859375 , 6.00433349609 , -1.25885009766 
2018/05/16 12:27:35.533884 , 0.03955078125 , 0.126708984375 , 1.0224609375 , 44.6818070818 , 26.2393162393 , -86.5147741148 , -3.41033935547 , 3.31878662109 , 0.885009765625 
2018/05/16 12:27:35.826483 , 0.03955078125 , 0.126708984375 , 1.0224609375 , 44.6818070818 , 26.2393162393 , -86.5147741148 , -3.41033935547 , 3.31878662109 , 0.885009765625 
2018/05/16 12:27:36.119100 , 0.03955078125 , 0.126708984375 , 1.0224609375 , 44.6818070818 , 26.2393162393 , -86.5147741148 , -3.41033935547 , 3.31878662109 , 0.885009765625 
2018/05/16 12:27:36.411484 , 0.03955078125 , 0.126708984375 , 1.0224609375 , 46.1811965812 , 26.2393162393 , -84.1157509158 , -5.50079345703 , 6.43157958984 , -3.12805175781 
2018/05/16 12:27:36.752641 , 0.079345703125 , 0.091796875 , 1.00439453125 , 46.1811965812 , 26.2393162393 , -84.1157509158 , -5.50079345703 , 6.43157958984 , -3.12805175781 
2018/05/16 12:27:37.045206 , 0.079345703125 , 0.091796875 , 1.00439453125 , 46.1811965812 , 26.2393162393 , -84.1157509158 , -5.50079345703 , 6.43157958984 , -3.12805175781 
2018/05/16 12:27:37.337668 , 0.079345703125 , 0.091796875 , 1.00439453125 , 46.1811965812 , 26.2393162393 , -84.1157509158 , -4.45556640625 , 4.31060791016 , -1.53350830078 
2018/05/16 12:27:37.630171 , 0.0546875 , 0.11328125 , 1.04711914062 , 44.5318681319 , 26.3892551893 , -84.5655677656 , -4.45556640625 , 4.31060791016 , -1.53350830078 
2018/05/16 12:27:37.922706 , 0.0546875 , 0.11328125 , 1.04711914062 , 44.5318681319 , 26.3892551893 , -84.5655677656 , -4.45556640625 , 4.31060791016 , -1.53350830078 
2018/05/16 12:27:38.215342 , 0.0546875 , 0.11328125 , 1.04711914062 , 44.5318681319 , 26.3892551893 , -84.5655677656 , -4.45556640625 , 4.31060791016 , -1.53350830078 
2018/05/16 12:27:38.507755 , 0.057373046875 , 0.148681640625 , 1.0849609375 , 44.231990232 , 25.6395604396 , -84.5655677656 , -5.0048828125 , 6.34765625 , -0.953674316406 
2018/05/16 12:27:38.800431 , 0.057373046875 , 0.148681640625 , 1.0849609375 , 44.231990232 , 25.6395604396 , -84.5655677656 , -5.0048828125 , 6.34765625 , -0.953674316406 
2018/05/16 12:27:39.092834 , 0.057373046875 , 0.148681640625 , 1.0849609375 , 44.231990232 , 25.6395604396 , -84.5655677656 , -5.0048828125 , 6.34765625 , -0.953674316406 
2018/05/16 12:27:39.385285 , 0.057373046875 , 0.148681640625 , 1.0849609375 , 45.1316239316 , 27.5887667888 , -84.1157509158 , -5.859375 , 6.40106201172 , 0.030517578125 
2018/05/16 12:27:39.726443 , 0.049560546875 , 0.084228515625 , 1.00146484375 , 45.1316239316 , 27.5887667888 , -84.1157509158 , -5.859375 , 6.40106201172 , 0.030517578125 
2018/05/16 12:27:40.019080 , 0.049560546875 , 0.084228515625 , 1.00146484375 , 45.1316239316 , 27.5887667888 , -84.1157509158 , -5.859375 , 6.40106201172 , 0.030517578125 
2018/05/16 12:27:40.311494 , 0.049560546875 , 0.084228515625 , 1.00146484375 , 45.1316239316 , 27.5887667888 , -84.1157509158 , -5.615234375 , 7.19451904297 , 1.53350830078 
2018/05/16 12:27:40.603921 , 0.061279296875 , 0.13623046875 , 1.03369140625 , 44.9816849817 , 27.1389499389 , -85.915018315 , -5.615234375 , 7.19451904297 , 1.53350830078 
2018/05/16 12:27:40.896427 , 0.061279296875 , 0.13623046875 , 1.03369140625 , 44.9816849817 , 27.1389499389 , -85.915018315 , -5.615234375 , 7.19451904297 , 1.53350830078 
2018/05/16 12:27:41.189430 , 0.061279296875 , 0.13623046875 , 1.03369140625 , 44.9816849817 , 27.1389499389 , -85.915018315 , -5.615234375 , 7.19451904297 , 1.53350830078 
2018/05/16 12:27:41.481504 , 0.075439453125 , 0.132568359375 , 1.01586914062 , 45.2815628816 , 26.6891330891 , -85.6151404151 , -3.34930419922 , 5.59997558594 , 0.221252441406 
2018/05/16 12:27:41.774055 , 0.075439453125 , 0.132568359375 , 1.01586914062 , 45.2815628816 , 26.6891330891 , -85.6151404151 , -3.34930419922 , 5.59997558594 , 0.221252441406 
2018/05/16 12:27:42.066612 , 0.075439453125 , 0.132568359375 , 1.01586914062 , 45.2815628816 , 26.6891330891 , -85.6151404151 , -3.34930419922 , 5.59997558594 , 0.221252441406 
2018/05/16 12:27:42.359075 , 0.075439453125 , 0.132568359375 , 1.01586914062 , 43.4822954823 , 27.1389499389 , -85.915018315 , -6.01959228516 , 5.859375 , -1.67083740234 
2018/05/16 12:27:42.700237 , 0.003173828125 , 0.15234375 , 1.04272460938 , 43.4822954823 , 27.1389499389 , -85.915018315 , -6.01959228516 , 5.859375 , -1.67083740234 
2018/05/16 12:27:42.992734 , 0.003173828125 , 0.15234375 , 1.04272460938 , 43.4822954823 , 27.1389499389 , -85.915018315 , -6.01959228516 , 5.859375 , -1.67083740234 
2018/05/16 12:27:43.285461 , 0.003173828125 , 0.15234375 , 1.04272460938 , 43.4822954823 , 27.1389499389 , -85.915018315 , -6.88171386719 , 5.13458251953 , -1.45721435547 
2018/05/16 12:27:43.577776 , -0.034423828125 , 0.200439453125 , 1.01171875 , 45.1316239316 , 25.7894993895 , -84.4156288156 , -6.88171386719 , 5.13458251953 , -1.45721435547 
2018/05/16 12:27:43.870348 , -0.034423828125 , 0.200439453125 , 1.01171875 , 45.1316239316 , 25.7894993895 , -84.4156288156 , -6.88171386719 , 5.13458251953 , -1.45721435547 
2018/05/16 12:27:44.163316 , -0.034423828125 , 0.200439453125 , 1.01171875 , 45.1316239316 , 25.7894993895 , -84.4156288156 , -6.88171386719 , 5.13458251953 , -1.45721435547 
2018/05/16 12:27:44.455488 , -0.034423828125 , 0.200439453125 , 1.01171875 , 45.1316239316 , 25.7894993895 , -84.4156288156 , -4.34875488281 , 4.64630126953 , -0.831604003906 
2018/05/16 12:27:44.747905 , 0.060791015625 , 0.12451171875 , 1.04077148438 , 45.1316239316 , 25.7894993895 , -84.4156288156 , -4.34875488281 , 4.64630126953 , -0.831604003906 
2018/05/16 12:27:45.040289 , 0.060791015625 , 0.12451171875 , 1.04077148438 , 45.1316239316 , 25.7894993895 , -84.4156288156 , -4.34875488281 , 4.64630126953 , -0.831604003906 
2018/05/16 12:27:45.332970 , 0.060791015625 , 0.12451171875 , 1.04077148438 , 45.1316239316 , 25.7894993895 , -84.4156288156 , -4.39453125 , 4.33349609375 , -0.274658203125 
2018/05/16 12:27:45.625420 , 0.023681640625 , 0.115234375 , 0.968505859375 , 44.5318681319 , 28.4884004884 , -85.6151404151 , -4.39453125 , 4.33349609375 , -0.274658203125 
2018/05/16 12:27:45.917773 , 0.023681640625 , 0.115234375 , 0.968505859375 , 44.5318681319 , 28.4884004884 , -85.6151404151 , -4.39453125 , 4.33349609375 , -0.274658203125 
2018/05/16 12:27:46.210376 , 0.023681640625 , 0.115234375 , 0.968505859375 , 44.5318681319 , 28.4884004884 , -85.6151404151 , -4.39453125 , 4.33349609375 , -0.274658203125 
2018/05/16 12:27:46.502734 , 0.001220703125 , 0.1298828125 , 0.996337890625 , 44.5318681319 , 28.4884004884 , -85.6151404151 , -5.0048828125 , 5.81359863281 , 0.877380371094 
2018/05/16 12:27:46.795356 , 0.001220703125 , 0.1298828125 , 0.996337890625 , 44.5318681319 , 28.4884004884 , -85.6151404151 , -5.0048828125 , 5.81359863281 , 0.877380371094 
2018/05/16 12:27:47.087829 , 0.001220703125 , 0.1298828125 , 0.996337890625 , 44.5318681319 , 28.4884004884 , -85.6151404151 , -5.0048828125 , 5.81359863281 , 0.877380371094 
2018/05/16 12:27:47.380260 , 0.001220703125 , 0.1298828125 , 0.996337890625 , 45.2815628816 , 27.1389499389 , -84.2656898657 , -4.72259521484 , 6.69097900391 , -2.16674804688 
2018/05/16 12:27:47.672748 , 0.0302734375 , 0.16259765625 , 1.02563476562 , 45.2815628816 , 27.1389499389 , -84.2656898657 , -4.72259521484 , 6.69097900391 , -2.16674804688 
2018/05/16 12:27:47.965282 , 0.0302734375 , 0.16259765625 , 1.02563476562 , 45.2815628816 , 27.1389499389 , -84.2656898657 , -4.72259521484 , 6.69097900391 , -2.16674804688 
2018/05/16 12:27:48.257835 , 0.0302734375 , 0.16259765625 , 1.02563476562 , 45.2815628816 , 27.1389499389 , -84.2656898657 , -4.72259521484 , 6.69097900391 , -2.16674804688 
2018/05/16 12:27:48.550299 , 0.04443359375 , 0.139404296875 , 1.05126953125 , 45.2815628816 , 27.1389499389 , -84.2656898657 , -4.78363037109 , 3.44085693359 , -2.49481201172 
2018/05/16 12:27:48.843226 , 0.04443359375 , 0.139404296875 , 1.05126953125 , 45.2815628816 , 27.1389499389 , -84.2656898657 , -4.78363037109 , 3.44085693359 , -2.49481201172 
2018/05/16 12:27:49.135686 , 0.04443359375 , 0.139404296875 , 1.05126953125 , 45.2815628816 , 27.1389499389 , -84.2656898657 , -4.78363037109 , 3.44085693359 , -2.49481201172 
2018/05/16 12:27:49.427776 , 0.04443359375 , 0.139404296875 , 1.05126953125 , 44.9816849817 , 26.0893772894 , -83.9658119658 , -4.84466552734 , 4.77600097656 , -0.54931640625 
2018/05/16 12:27:49.720032 , 0.05078125 , 0.11669921875 , 1.00146484375 , 44.9816849817 , 26.0893772894 , -83.9658119658 , -4.84466552734 , 4.77600097656 , -0.54931640625 
2018/05/16 12:27:50.012777 , 0.05078125 , 0.11669921875 , 1.00146484375 , 44.9816849817 , 26.0893772894 , -83.9658119658 , -4.84466552734 , 4.77600097656 , -0.54931640625 
2018/05/16 12:27:50.305447 , 0.05078125 , 0.11669921875 , 1.00146484375 , 44.9816849817 , 26.0893772894 , -83.9658119658 , -1.80053710938 , 5.68389892578 , 1.37329101562 
2018/05/16 12:27:50.597784 , -0.01513671875 , 0.1025390625 , 1.02099609375 , 44.9816849817 , 26.0893772894 , -83.9658119658 , -1.80053710938 , 5.68389892578 , 1.37329101562 
2018/05/16 12:27:50.939050 , -0.01513671875 , 0.1025390625 , 1.02099609375 , 44.9816849817 , 26.0893772894 , -83.9658119658 , -1.80053710938 , 5.68389892578 , 1.37329101562 
2018/05/16 12:27:51.231613 , -0.01513671875 , 0.1025390625 , 1.02099609375 , 44.9816849817 , 26.0893772894 , -83.9658119658 , -1.80053710938 , 5.68389892578 , 1.37329101562 
2018/05/16 12:27:51.524050 , 0.03173828125 , 0.137451171875 , 1.03491210938 , 44.9816849817 , 26.0893772894 , -83.9658119658 , -5.59997558594 , 6.25610351562 , -0.411987304688 
2018/05/16 12:27:51.816566 , 0.03173828125 , 0.137451171875 , 1.03491210938 , 44.9816849817 , 26.0893772894 , -83.9658119658 , -5.59997558594 , 6.25610351562 , -0.411987304688 
2018/05/16 12:27:52.109207 , 0.03173828125 , 0.137451171875 , 1.03491210938 , 44.9816849817 , 26.0893772894 , -83.9658119658 , -5.59997558594 , 6.25610351562 , -0.411987304688 
2018/05/16 12:27:52.401554 , 0.03173828125 , 0.137451171875 , 1.03491210938 , 45.5814407814 , 26.3892551893 , -85.915018315 , -1.66320800781 , 4.53186035156 , 0.572204589844 
2018/05/16 12:27:52.694033 , 0.002685546875 , 0.12890625 , 1.02880859375 , 45.5814407814 , 26.3892551893 , -85.915018315 , -1.66320800781 , 4.53186035156 , 0.572204589844 
2018/05/16 12:27:52.986523 , 0.002685546875 , 0.12890625 , 1.02880859375 , 45.5814407814 , 26.3892551893 , -85.915018315 , -1.66320800781 , 4.53186035156 , 0.572204589844 
2018/05/16 12:27:53.279110 , 0.002685546875 , 0.12890625 , 1.02880859375 , 45.5814407814 , 26.3892551893 , -85.915018315 , -3.88336181641 , 6.14166259766 , 0.762939453125 
2018/05/16 12:27:53.571515 , 0.068359375 , 0.119384765625 , 1.03833007812 , 44.9816849817 , 27.7387057387 , -85.3152625153 , -3.88336181641 , 6.14166259766 , 0.762939453125 
2018/05/16 12:27:53.864036 , 0.068359375 , 0.119384765625 , 1.03833007812 , 44.9816849817 , 27.7387057387 , -85.3152625153 , -3.88336181641 , 6.14166259766 , 0.762939453125 
2018/05/16 12:27:54.156777 , 0.068359375 , 0.119384765625 , 1.03833007812 , 44.9816849817 , 27.7387057387 , -85.3152625153 , -3.88336181641 , 6.14166259766 , 0.762939453125 
2018/05/16 12:27:54.449189 , 0.068359375 , 0.119384765625 , 1.03833007812 , 44.9816849817 , 27.7387057387 , -85.3152625153 , -5.47790527344 , 5.82885742188 , -0.732421875 
2018/05/16 12:27:54.741539 , 0.0947265625 , 0.16748046875 , 1.02392578125 , 44.9816849817 , 27.7387057387 , -85.3152625153 , -5.47790527344 , 5.82885742188 , -0.732421875 
2018/05/16 12:27:55.034318 , 0.0947265625 , 0.16748046875 , 1.02392578125 , 44.9816849817 , 27.7387057387 , -85.3152625153 , -5.47790527344 , 5.82885742188 , -0.732421875 
2018/05/16 12:27:55.326585 , 0.0947265625 , 0.16748046875 , 1.02392578125 , 44.9816849817 , 27.7387057387 , -85.3152625153 , -2.47192382812 , 3.82232666016 , 0.434875488281 
2018/05/16 12:27:55.619101 , 0.08447265625 , 0.115966796875 , 1.02685546875 , 44.9816849817 , 27.7387057387 , -85.3152625153 , -2.47192382812 , 3.82232666016 , 0.434875488281 
2018/05/16 12:27:55.960321 , 0.08447265625 , 0.115966796875 , 1.02685546875 , 44.9816849817 , 27.7387057387 , -85.3152625153 , -2.47192382812 , 3.82232666016 , 0.434875488281 
2018/05/16 12:27:56.252951 , 0.08447265625 , 0.115966796875 , 1.02685546875 , 44.9816849817 , 27.7387057387 , -85.3152625153 , -2.47192382812 , 3.82232666016 , 0.434875488281 
2018/05/16 12:27:56.545385 , -0.004638671875 , 0.0966796875 , 1.05004882812 , 43.4822954823 , 27.4388278388 , -84.5655677656 , -5.09643554688 , 4.85229492188 , -0.9765625 
2018/05/16 12:27:56.837930 , -0.004638671875 , 0.0966796875 , 1.05004882812 , 43.4822954823 , 27.4388278388 , -84.5655677656 , -5.09643554688 , 4.85229492188 , -0.9765625 
2018/05/16 12:27:57.130493 , -0.004638671875 , 0.0966796875 , 1.05004882812 , 43.4822954823 , 27.4388278388 , -84.5655677656 , -5.09643554688 , 4.85229492188 , -0.9765625 
2018/05/16 12:27:57.422962 , -0.004638671875 , 0.0966796875 , 1.05004882812 , 45.4315018315 , 28.3384615385 , -85.1653235653 , -3.76892089844 , 5.11169433594 , -0.640869140625 
2018/05/16 12:27:57.715317 , 0.031494140625 , 0.150634765625 , 1.01708984375 , 45.4315018315 , 28.3384615385 , -85.1653235653 , -3.76892089844 , 5.11169433594 , -0.640869140625 
2018/05/16 12:27:58.007948 , 0.031494140625 , 0.150634765625 , 1.01708984375 , 45.4315018315 , 28.3384615385 , -85.1653235653 , -3.76892089844 , 5.11169433594 , -0.640869140625 
2018/05/16 12:27:58.300630 , 0.031494140625 , 0.150634765625 , 1.01708984375 , 45.4315018315 , 28.3384615385 , -85.1653235653 , -4.638671875 , 4.69207763672 , -0.442504882812 
2018/05/16 12:27:58.592842 , 0.015380859375 , 0.163818359375 , 1.00708007812 , 43.3323565324 , 26.5391941392 , -84.7155067155 , -4.638671875 , 4.69207763672 , -0.442504882812 
2018/05/16 12:27:58.934271 , 0.015380859375 , 0.163818359375 , 1.00708007812 , 43.3323565324 , 26.5391941392 , -84.7155067155 , -4.638671875 , 4.69207763672 , -0.442504882812 
2018/05/16 12:27:59.226779 , 0.015380859375 , 0.163818359375 , 1.00708007812 , 43.3323565324 , 26.5391941392 , -84.7155067155 , -4.638671875 , 4.69207763672 , -0.442504882812 
2018/05/16 12:27:59.519090 , 0.0302734375 , 0.176513671875 , 1.00756835938 , 44.0820512821 , 26.8390720391 , -85.4652014652 , -4.34875488281 , 3.38745117188 , -2.41851806641 
2018/05/16 12:27:59.811608 , 0.0302734375 , 0.176513671875 , 1.00756835938 , 44.0820512821 , 26.8390720391 , -85.4652014652 , -4.34875488281 , 3.38745117188 , -2.41851806641 
2018/05/16 12:28:00.104447 , 0.0302734375 , 0.176513671875 , 1.00756835938 , 44.0820512821 , 26.8390720391 , -85.4652014652 , -4.34875488281 , 3.38745117188 , -2.41851806641 
2018/05/16 12:28:00.396729 , 0.0302734375 , 0.176513671875 , 1.00756835938 , 45.4315018315 , 28.6383394383 , -86.2148962149 , -4.07409667969 , 3.64685058594 , 0.495910644531 
2018/05/16 12:28:00.689094 , 0.00390625 , 0.14599609375 , 1.05151367188 , 45.4315018315 , 28.6383394383 , -86.2148962149 , -4.07409667969 , 3.64685058594 , 0.495910644531 
2018/05/16 12:28:00.981577 , 0.00390625 , 0.14599609375 , 1.05151367188 , 45.4315018315 , 28.6383394383 , -86.2148962149 , -4.07409667969 , 3.64685058594 , 0.495910644531 
2018/05/16 12:28:01.274183 , 0.00390625 , 0.14599609375 , 1.05151367188 , 45.4315018315 , 28.6383394383 , -86.2148962149 , -4.07409667969 , 3.64685058594 , 0.495910644531 
2018/05/16 12:28:01.566599 , 0.02392578125 , 0.1533203125 , 1.001953125 , 45.5814407814 , 26.0893772894 , -84.5655677656 , -5.859375 , 5.18798828125 , -0.389099121094 
2018/05/16 12:28:01.859139 , 0.02392578125 , 0.1533203125 , 1.001953125 , 45.5814407814 , 26.0893772894 , -84.5655677656 , -5.859375 , 5.18798828125 , -0.389099121094 
2018/05/16 12:28:02.151723 , 0.02392578125 , 0.1533203125 , 1.001953125 , 45.5814407814 , 26.0893772894 , -84.5655677656 , -5.859375 , 5.18798828125 , -0.389099121094 
2018/05/16 12:28:02.444258 , 0.027099609375 , 0.150146484375 , 1.0400390625 , 46.1811965812 , 27.8886446886 , -84.7155067155 , -3.64685058594 , 6.03485107422 , 0.839233398438 
2018/05/16 12:28:02.785510 , 0.027099609375 , 0.150146484375 , 1.0400390625 , 46.1811965812 , 27.8886446886 , -84.7155067155 , -3.64685058594 , 6.03485107422 , 0.839233398438 
2018/05/16 12:28:03.078024 , 0.027099609375 , 0.150146484375 , 1.0400390625 , 46.1811965812 , 27.8886446886 , -84.7155067155 , -3.64685058594 , 6.03485107422 , 0.839233398438 
2018/05/16 12:28:03.370406 , 0.027099609375 , 0.150146484375 , 1.0400390625 , 46.1811965812 , 27.8886446886 , -84.7155067155 , -3.73077392578 , 4.57000732422 , -0.404357910156 
2018/05/16 12:28:03.662871 , 0.0166015625 , 0.116943359375 , 0.9951171875 , 43.7821733822 , 26.3892551893 , -85.3152625153 , -3.73077392578 , 4.57000732422 , -0.404357910156 
2018/05/16 12:28:03.955350 , 0.0166015625 , 0.116943359375 , 0.9951171875 , 43.7821733822 , 26.3892551893 , -85.3152625153 , -3.73077392578 , 4.57000732422 , -0.404357910156 
2018/05/16 12:28:04.247974 , 0.0166015625 , 0.116943359375 , 0.9951171875 , 43.7821733822 , 26.3892551893 , -85.3152625153 , -3.73077392578 , 4.57000732422 , -0.404357910156 
2018/05/16 12:28:04.540392 , 0.091796875 , 0.143798828125 , 1.06201171875 , 44.5318681319 , 26.6891330891 , -85.6151404151 , -4.41741943359 , 2.69317626953 , -1.60217285156 
2018/05/16 12:28:04.832894 , 0.091796875 , 0.143798828125 , 1.06201171875 , 44.5318681319 , 26.6891330891 , -85.6151404151 , -4.41741943359 , 2.69317626953 , -1.60217285156 
2018/05/16 12:28:05.125646 , 0.091796875 , 0.143798828125 , 1.06201171875 , 44.5318681319 , 26.6891330891 , -85.6151404151 , -4.41741943359 , 2.69317626953 , -1.60217285156 
2018/05/16 12:28:05.417895 , 0.091796875 , 0.143798828125 , 1.06201171875 , 45.2815628816 , 26.3892551893 , -85.0153846154 , -3.95202636719 , 4.96673583984 , -0.282287597656 
2018/05/16 12:28:05.710555 , 0.003662109375 , 0.088623046875 , 1.05078125 , 45.2815628816 , 26.3892551893 , -85.0153846154 , -3.95202636719 , 4.96673583984 , -0.282287597656 
2018/05/16 12:28:06.002887 , 0.003662109375 , 0.088623046875 , 1.05078125 , 45.2815628816 , 26.3892551893 , -85.0153846154 , -3.95202636719 , 4.96673583984 , -0.282287597656 
2018/05/16 12:28:06.295747 , 0.003662109375 , 0.088623046875 , 1.05078125 , 45.2815628816 , 26.3892551893 , -85.0153846154 , -3.56292724609 , 5.27191162109 , -0.0381469726562 
2018/05/16 12:28:06.588504 , 0.027099609375 , 0.115478515625 , 1.03784179688 , 45.1316239316 , 24.7399267399 , -85.1653235653 , -3.56292724609 , 5.27191162109 , -0.0381469726562 
2018/05/16 12:28:06.881314 , 0.027099609375 , 0.115478515625 , 1.03784179688 , 45.1316239316 , 24.7399267399 , -85.1653235653 , -3.56292724609 , 5.27191162109 , -0.0381469726562 
2018/05/16 12:28:07.174134 , 0.027099609375 , 0.115478515625 , 1.03784179688 , 45.1316239316 , 24.7399267399 , -85.1653235653 , -3.56292724609 , 5.27191162109 , -0.0381469726562 
2018/05/16 12:28:07.466960 , 0.027099609375 , 0.115478515625 , 1.03784179688 , 43.0324786325 , 27.8886446886 , -84.4156288156 , -3.63159179688 , 6.86645507812 , -2.18963623047 
2018/05/16 12:28:07.759708 , 0.012451171875 , 0.114501953125 , 1.04345703125 , 43.0324786325 , 27.8886446886 , -84.4156288156 , -3.63159179688 , 6.86645507812 , -2.18963623047 
2018/05/16 12:28:08.052838 , 0.012451171875 , 0.114501953125 , 1.04345703125 , 43.0324786325 , 27.8886446886 , -84.4156288156 , -3.63159179688 , 6.86645507812 , -2.18963623047 
2018/05/16 12:28:08.345418 , 0.012451171875 , 0.114501953125 , 1.04345703125 , 43.0324786325 , 27.8886446886 , -84.4156288156 , -2.86865234375 , 3.50952148438 , -0.328063964844 
2018/05/16 12:28:08.638098 , 0.0478515625 , 0.141845703125 , 1.01953125 , 45.4315018315 , 27.2888888889 , -85.1653235653 , -2.86865234375 , 3.50952148438 , -0.328063964844 
2018/05/16 12:28:08.930852 , 0.0478515625 , 0.141845703125 , 1.01953125 , 45.4315018315 , 27.2888888889 , -85.1653235653 , -2.86865234375 , 3.50952148438 , -0.328063964844 
2018/05/16 12:28:09.223629 , 0.0478515625 , 0.141845703125 , 1.01953125 , 45.4315018315 , 27.2888888889 , -85.1653235653 , -2.86865234375 , 3.50952148438 , -0.328063964844 
2018/05/16 12:28:09.516416 , 0.003173828125 , 0.1484375 , 1.00146484375 , 44.6818070818 , 29.0881562882 , -84.7155067155 , -5.89752197266 , 6.82067871094 , -1.56402587891 
2018/05/16 12:28:09.809069 , 0.003173828125 , 0.1484375 , 1.00146484375 , 44.6818070818 , 29.0881562882 , -84.7155067155 , -5.89752197266 , 6.82067871094 , -1.56402587891 
2018/05/16 12:28:10.102072 , 0.003173828125 , 0.1484375 , 1.00146484375 , 44.6818070818 , 29.0881562882 , -84.7155067155 , -5.89752197266 , 6.82067871094 , -1.56402587891 
2018/05/16 12:28:10.394597 , 0.003173828125 , 0.1484375 , 1.00146484375 , 44.9816849817 , 25.6395604396 , -85.3152625153 , -5.21087646484 , 4.69207763672 , 0.999450683594 
2018/05/16 12:28:10.687365 , 0.0234375 , 0.18408203125 , 1.02099609375 , 44.9816849817 , 25.6395604396 , -85.3152625153 , -5.21087646484 , 4.69207763672 , 0.999450683594 
2018/05/16 12:28:10.980050 , 0.0234375 , 0.18408203125 , 1.02099609375 , 44.9816849817 , 25.6395604396 , -85.3152625153 , -5.21087646484 , 4.69207763672 , 0.999450683594 
2018/05/16 12:28:11.272879 , 0.0234375 , 0.18408203125 , 1.02099609375 , 44.9816849817 , 25.6395604396 , -85.3152625153 , -5.21087646484 , 4.69207763672 , 0.999450683594 
2018/05/16 12:28:11.565516 , 0.05322265625 , 0.117431640625 , 1.07006835938 , 44.5318681319 , 26.6891330891 , -84.2656898657 , -5.60760498047 , 4.97436523438 , 0.984191894531 
2018/05/16 12:28:11.858222 , 0.05322265625 , 0.117431640625 , 1.07006835938 , 44.5318681319 , 26.6891330891 , -84.2656898657 , -5.60760498047 , 4.97436523438 , 0.984191894531 
2018/05/16 12:28:12.151132 , 0.05322265625 , 0.117431640625 , 1.07006835938 , 44.5318681319 , 26.6891330891 , -84.2656898657 , -5.60760498047 , 4.97436523438 , 0.984191894531 
2018/05/16 12:28:12.443741 , 0.05322265625 , 0.117431640625 , 1.07006835938 , 43.4822954823 , 27.4388278388 , -86.3648351648 , -5.06591796875 , 4.77600097656 , 0.3662109375 
2018/05/16 12:28:12.736355 , -0.025634765625 , 0.159423828125 , 1.00341796875 , 43.4822954823 , 27.4388278388 , -86.3648351648 , -5.06591796875 , 4.77600097656 , 0.3662109375 
2018/05/16 12:28:13.029165 , -0.025634765625 , 0.159423828125 , 1.00341796875 , 43.4822954823 , 27.4388278388 , -86.3648351648 , -5.06591796875 , 4.77600097656 , 0.3662109375 
2018/05/16 12:28:13.321838 , -0.025634765625 , 0.159423828125 , 1.00341796875 , 43.4822954823 , 27.4388278388 , -86.3648351648 , -4.33349609375 , 2.70080566406 , -0.701904296875 
2018/05/16 12:28:13.614617 , 0.03564453125 , 0.08447265625 , 1.00927734375 , 44.9816849817 , 27.7387057387 , -85.6151404151 , -4.33349609375 , 2.70080566406 , -0.701904296875 
2018/05/16 12:28:13.907198 , 0.03564453125 , 0.08447265625 , 1.00927734375 , 44.9816849817 , 27.7387057387 , -85.6151404151 , -4.33349609375 , 2.70080566406 , -0.701904296875 
2018/05/16 12:28:14.200112 , 0.03564453125 , 0.08447265625 , 1.00927734375 , 44.9816849817 , 27.7387057387 , -85.6151404151 , -4.33349609375 , 2.70080566406 , -0.701904296875 
2018/05/16 12:28:14.492636 , 0.001953125 , 0.105224609375 , 0.97998046875 , 44.3819291819 , 27.8886446886 , -85.4652014652 , -5.30242919922 , 5.92041015625 , -1.63269042969 
2018/05/16 12:28:14.785344 , 0.001953125 , 0.105224609375 , 0.97998046875 , 44.3819291819 , 27.8886446886 , -85.4652014652 , -5.30242919922 , 5.92041015625 , -1.63269042969 
2018/05/16 12:28:15.078041 , 0.001953125 , 0.105224609375 , 0.97998046875 , 44.3819291819 , 27.8886446886 , -85.4652014652 , -5.30242919922 , 5.92041015625 , -1.63269042969 
2018/05/16 12:28:15.370675 , 0.001953125 , 0.105224609375 , 0.97998046875 , 44.3819291819 , 27.8886446886 , -85.4652014652 , -3.68499755859 , 3.69262695312 , 0.480651855469 
2018/05/16 12:28:15.663316 , 0.01806640625 , 0.102294921875 , 1.06079101562 , 44.9816849817 , 26.6891330891 , -83.9658119658 , -3.68499755859 , 3.69262695312 , 0.480651855469 
2018/05/16 12:28:15.955942 , 0.01806640625 , 0.102294921875 , 1.06079101562 , 44.9816849817 , 26.6891330891 , -83.9658119658 , -3.68499755859 , 3.69262695312 , 0.480651855469 
2018/05/16 12:28:16.248713 , 0.01806640625 , 0.102294921875 , 1.06079101562 , 44.9816849817 , 26.6891330891 , -83.9658119658 , -3.68499755859 , 3.69262695312 , 0.480651855469 
2018/05/16 12:28:16.541304 , 0.056884765625 , 0.126220703125 , 0.997314453125 , 43.7821733822 , 27.7387057387 , -85.3152625153 , -5.10406494141 , 5.50079345703 , 0.0152587890625 
2018/05/16 12:28:16.834205 , 0.056884765625 , 0.126220703125 , 0.997314453125 , 43.7821733822 , 27.7387057387 , -85.3152625153 , -5.10406494141 , 5.50079345703 , 0.0152587890625 
2018/05/16 12:28:17.126811 , 0.056884765625 , 0.126220703125 , 0.997314453125 , 43.7821733822 , 27.7387057387 , -85.3152625153 , -5.10406494141 , 5.50079345703 , 0.0152587890625 
2018/05/16 12:28:17.419250 , 0.056884765625 , 0.126220703125 , 0.997314453125 , 45.4315018315 , 27.8886446886 , -85.1653235653 , -4.79888916016 , 4.53186035156 , -0.419616699219 
2018/05/16 12:28:17.711911 , -0.015869140625 , 0.146484375 , 1.01635742188 , 45.4315018315 , 27.8886446886 , -85.1653235653 , -4.79888916016 , 4.53186035156 , -0.419616699219 
2018/05/16 12:28:18.004568 , -0.015869140625 , 0.146484375 , 1.01635742188 , 45.4315018315 , 27.8886446886 , -85.1653235653 , -4.79888916016 , 4.53186035156 , -0.419616699219 
2018/05/16 12:28:18.297281 , -0.015869140625 , 0.146484375 , 1.01635742188 , 45.4315018315 , 27.8886446886 , -85.1653235653 , -5.11169433594 , 3.71551513672 , -1.15203857422 
2018/05/16 12:28:18.589864 , 0.036376953125 , 0.134765625 , 0.997802734375 , 45.1316239316 , 27.5887667888 , -84.1157509158 , -5.11169433594 , 3.71551513672 , -1.15203857422 
2018/05/16 12:28:18.882489 , 0.036376953125 , 0.134765625 , 0.997802734375 , 45.1316239316 , 27.5887667888 , -84.1157509158 , -5.11169433594 , 3.71551513672 , -1.15203857422 
2018/05/16 12:28:19.175267 , 0.036376953125 , 0.134765625 , 0.997802734375 , 45.1316239316 , 27.5887667888 , -84.1157509158 , -5.11169433594 , 3.71551513672 , -1.15203857422 
2018/05/16 12:28:19.467777 , 0.036376953125 , 0.134765625 , 0.997802734375 , 44.231990232 , 27.1389499389 , -85.0153846154 , -5.92041015625 , 4.33349609375 , -0.144958496094 
2018/05/16 12:28:19.760553 , 0.031005859375 , 0.11279296875 , 1.01684570312 , 44.231990232 , 27.1389499389 , -85.0153846154 , -5.92041015625 , 4.33349609375 , -0.144958496094 
2018/05/16 12:28:20.053194 , 0.031005859375 , 0.11279296875 , 1.01684570312 , 44.231990232 , 27.1389499389 , -85.0153846154 , -5.92041015625 , 4.33349609375 , -0.144958496094 
2018/05/16 12:28:20.345681 , 0.031005859375 , 0.11279296875 , 1.01684570312 , 44.231990232 , 27.1389499389 , -85.0153846154 , -4.13513183594 , 5.63049316406 , 0.770568847656 
2018/05/16 12:28:20.638321 , 0.05322265625 , 0.112060546875 , 1.02807617188 , 43.3323565324 , 27.5887667888 , -85.4652014652 , -4.13513183594 , 5.63049316406 , 0.770568847656 
2018/05/16 12:28:20.930906 , 0.05322265625 , 0.112060546875 , 1.02807617188 , 43.3323565324 , 27.5887667888 , -85.4652014652 , -4.13513183594 , 5.63049316406 , 0.770568847656 
2018/05/16 12:28:21.223673 , 0.05322265625 , 0.112060546875 , 1.02807617188 , 43.3323565324 , 27.5887667888 , -85.4652014652 , -4.13513183594 , 5.63049316406 , 0.770568847656 
2018/05/16 12:28:21.516184 , 0.05322265625 , 0.138916015625 , 0.982421875 , 43.3323565324 , 27.5887667888 , -85.1653235653 , -4.32586669922 , 6.591796875 , 0.869750976562 
2018/05/16 12:28:21.808796 , 0.05322265625 , 0.138916015625 , 0.982421875 , 43.3323565324 , 27.5887667888 , -85.1653235653 , -4.32586669922 , 6.591796875 , 0.869750976562 
2018/05/16 12:28:22.101534 , 0.05322265625 , 0.138916015625 , 0.982421875 , 43.3323565324 , 27.5887667888 , -85.1653235653 , -4.32586669922 , 6.591796875 , 0.869750976562 
2018/05/16 12:28:22.394087 , 0.05322265625 , 0.138916015625 , 0.982421875 , 44.5318681319 , 26.6891330891 , -85.6151404151 , -2.33459472656 , 4.69970703125 , 0.656127929688 
2018/05/16 12:28:22.686760 , 0.0361328125 , 0.056640625 , 1.03149414062 , 44.5318681319 , 26.6891330891 , -85.6151404151 , -2.33459472656 , 4.69970703125 , 0.656127929688 
2018/05/16 12:28:22.979252 , 0.0361328125 , 0.056640625 , 1.03149414062 , 44.5318681319 , 26.6891330891 , -85.6151404151 , -2.33459472656 , 4.69970703125 , 0.656127929688 
2018/05/16 12:28:23.272054 , 0.0361328125 , 0.056640625 , 1.03149414062 , 44.5318681319 , 26.6891330891 , -85.6151404151 , -2.33459472656 , 4.69970703125 , 0.656127929688 
2018/05/16 12:28:23.564438 , -0.010009765625 , 0.1884765625 , 1.02124023438 , 45.1316239316 , 28.3384615385 , -83.0661782662 , -4.66156005859 , 5.97381591797 , -0.228881835938 
2018/05/16 12:28:23.857243 , -0.010009765625 , 0.1884765625 , 1.02124023438 , 45.1316239316 , 28.3384615385 , -83.0661782662 , -4.66156005859 , 5.97381591797 , -0.228881835938 
2018/05/16 12:28:24.149787 , -0.010009765625 , 0.1884765625 , 1.02124023438 , 45.1316239316 , 28.3384615385 , -83.0661782662 , -4.66156005859 , 5.97381591797 , -0.228881835938 
2018/05/16 12:28:24.442405 , -0.010009765625 , 0.1884765625 , 1.02124023438 , 44.3819291819 , 26.5391941392 , -85.7650793651 , -4.11987304688 , 4.48608398438 , 0.160217285156 
2018/05/16 12:28:24.734866 , 0.010498046875 , 0.12060546875 , 1.0615234375 , 44.3819291819 , 26.5391941392 , -85.7650793651 , -4.11987304688 , 4.48608398438 , 0.160217285156 
2018/05/16 12:28:25.027496 , 0.010498046875 , 0.12060546875 , 1.0615234375 , 44.3819291819 , 26.5391941392 , -85.7650793651 , -4.11987304688 , 4.48608398438 , 0.160217285156 
2018/05/16 12:28:25.320088 , 0.010498046875 , 0.12060546875 , 1.0615234375 , 44.3819291819 , 26.5391941392 , -85.7650793651 , -5.39398193359 , 4.18090820312 , -1.46484375 
2018/05/16 12:28:25.612885 , 0.05419921875 , 0.131591796875 , 1.0185546875 , 44.3819291819 , 26.5391941392 , -85.7650793651 , -5.39398193359 , 4.18090820312 , -1.46484375 
2018/05/16 12:28:25.905231 , 0.05419921875 , 0.131591796875 , 1.0185546875 , 44.3819291819 , 26.5391941392 , -85.7650793651 , -5.39398193359 , 4.18090820312 , -1.46484375 
2018/05/16 12:28:26.197962 , 0.05419921875 , 0.131591796875 , 1.0185546875 , 44.3819291819 , 26.5391941392 , -85.7650793651 , -5.39398193359 , 4.18090820312 , -1.46484375 
2018/05/16 12:28:26.491494 , 0.000244140625 , 0.094970703125 , 1.04028320312 , 44.5318681319 , 25.6395604396 , -85.6151404151 , -4.56237792969 , 5.4931640625 , -0.343322753906 
2018/05/16 12:28:26.782958 , 0.000244140625 , 0.094970703125 , 1.04028320312 , 44.5318681319 , 25.6395604396 , -85.6151404151 , -4.56237792969 , 5.4931640625 , -0.343322753906 
2018/05/16 12:28:27.075964 , 0.000244140625 , 0.094970703125 , 1.04028320312 , 44.5318681319 , 25.6395604396 , -85.6151404151 , -4.56237792969 , 5.4931640625 , -0.343322753906 
2018/05/16 12:28:27.368171 , 0.000244140625 , 0.094970703125 , 1.04028320312 , 44.5318681319 , 25.6395604396 , -85.6151404151 , -4.72259521484 , 5.05828857422 , -3.35693359375 
2018/05/16 12:28:27.660749 , 0.06494140625 , 0.138427734375 , 1.0498046875 , 44.5318681319 , 25.6395604396 , -85.6151404151 , -4.72259521484 , 5.05828857422 , -3.35693359375 
2018/05/16 12:28:27.953305 , 0.06494140625 , 0.138427734375 , 1.0498046875 , 44.5318681319 , 25.6395604396 , -85.6151404151 , -4.72259521484 , 5.05828857422 , -3.35693359375 
2018/05/16 12:28:28.245991 , 0.06494140625 , 0.138427734375 , 1.0498046875 , 44.5318681319 , 25.6395604396 , -85.6151404151 , -4.72259521484 , 5.05828857422 , -3.35693359375 
2018/05/16 12:28:28.538464 , 0.028564453125 , 0.142822265625 , 1.015625 , 44.231990232 , 27.7387057387 , -85.6151404151 , -3.45611572266 , 5.38635253906 , 0.747680664062 
2018/05/16 12:28:28.831073 , 0.028564453125 , 0.142822265625 , 1.015625 , 44.231990232 , 27.7387057387 , -85.6151404151 , -3.45611572266 , 5.38635253906 , 0.747680664062 
2018/05/16 12:28:29.123775 , 0.028564453125 , 0.142822265625 , 1.015625 , 44.231990232 , 27.7387057387 , -85.6151404151 , -3.45611572266 , 5.38635253906 , 0.747680664062 
2018/05/16 12:28:29.416217 , 0.028564453125 , 0.142822265625 , 1.015625 , 44.231990232 , 27.7387057387 , -85.6151404151 , -3.36456298828 , 5.03540039062 , -0.518798828125 
2018/05/16 12:28:29.708781 , 0.041015625 , 0.13623046875 , 1.04443359375 , 44.231990232 , 27.7387057387 , -85.6151404151 , -3.36456298828 , 5.03540039062 , -0.518798828125 
2018/05/16 12:28:30.001541 , 0.041015625 , 0.13623046875 , 1.04443359375 , 44.231990232 , 27.7387057387 , -85.6151404151 , -3.36456298828 , 5.03540039062 , -0.518798828125 
2018/05/16 12:28:30.293976 , 0.041015625 , 0.13623046875 , 1.04443359375 , 44.231990232 , 27.7387057387 , -85.6151404151 , -5.40924072266 , 4.59289550781 , -0.816345214844 
2018/05/16 12:28:30.589086 , 0.008056640625 , 0.13818359375 , 1.01196289062 , 44.231990232 , 26.3892551893 , -85.0153846154 , -5.40924072266 , 4.59289550781 , -0.816345214844 
2018/05/16 12:28:30.879050 , 0.008056640625 , 0.13818359375 , 1.01196289062 , 44.231990232 , 26.3892551893 , -85.0153846154 , -5.40924072266 , 4.59289550781 , -0.816345214844 
2018/05/16 12:28:31.171690 , 0.008056640625 , 0.13818359375 , 1.01196289062 , 44.231990232 , 26.3892551893 , -85.0153846154 , -5.40924072266 , 4.59289550781 , -0.816345214844 
2018/05/16 12:28:31.464194 , 0.008056640625 , 0.13818359375 , 1.01196289062 , 44.231990232 , 26.3892551893 , -85.0153846154 , -4.93621826172 , 5.76782226562 , 0.587463378906 
2018/05/16 12:28:31.756811 , 0.00732421875 , 0.129150390625 , 1.01000976562 , 44.231990232 , 26.3892551893 , -85.0153846154 , -4.93621826172 , 5.76782226562 , 0.587463378906 
2018/05/16 12:28:32.049491 , 0.00732421875 , 0.129150390625 , 1.01000976562 , 44.231990232 , 26.3892551893 , -85.0153846154 , -4.93621826172 , 5.76782226562 , 0.587463378906 
2018/05/16 12:28:32.341958 , 0.00732421875 , 0.129150390625 , 1.01000976562 , 44.231990232 , 26.3892551893 , -85.0153846154 , -4.05883789062 , 3.92150878906 , 0.411987304688 
2018/05/16 12:28:32.634742 , -0.043212890625 , 0.125732421875 , 1.06958007812 , 44.231990232 , 26.3892551893 , -85.0153846154 , -4.05883789062 , 3.92150878906 , 0.411987304688 
2018/05/16 12:28:32.927095 , -0.043212890625 , 0.125732421875 , 1.06958007812 , 44.231990232 , 26.3892551893 , -85.0153846154 , -4.05883789062 , 3.92150878906 , 0.411987304688 
2018/05/16 12:28:33.219775 , -0.043212890625 , 0.125732421875 , 1.06958007812 , 44.231990232 , 26.3892551893 , -85.0153846154 , -4.05883789062 , 3.92150878906 , 0.411987304688 
2018/05/16 12:28:33.512196 , -0.041259765625 , 0.09765625 , 0.99462890625 , 44.3819291819 , 25.7894993895 , -84.7155067155 , -6.98852539062 , 5.94329833984 , -0.518798828125 
2018/05/16 12:28:33.804695 , -0.041259765625 , 0.09765625 , 0.99462890625 , 44.3819291819 , 25.7894993895 , -84.7155067155 , -6.98852539062 , 5.94329833984 , -0.518798828125 
2018/05/16 12:28:34.097555 , -0.041259765625 , 0.09765625 , 0.99462890625 , 44.3819291819 , 25.7894993895 , -84.7155067155 , -6.98852539062 , 5.94329833984 , -0.518798828125 
2018/05/16 12:28:34.389874 , -0.041259765625 , 0.09765625 , 0.99462890625 , 44.9816849817 , 25.6395604396 , -85.0153846154 , -2.70843505859 , 6.591796875 , 0.129699707031 
2018/05/16 12:28:34.682361 , 0.020263671875 , 0.13134765625 , 1.01879882812 , 44.9816849817 , 25.6395604396 , -85.0153846154 , -2.70843505859 , 6.591796875 , 0.129699707031 
2018/05/16 12:28:34.974915 , 0.020263671875 , 0.13134765625 , 1.01879882812 , 44.9816849817 , 25.6395604396 , -85.0153846154 , -2.70843505859 , 6.591796875 , 0.129699707031 
2018/05/16 12:28:35.267590 , 0.020263671875 , 0.13134765625 , 1.01879882812 , 44.9816849817 , 25.6395604396 , -85.0153846154 , -2.70843505859 , 6.591796875 , 0.129699707031 
2018/05/16 12:28:35.559997 , 0.02587890625 , 0.1142578125 , 1.01953125 , 44.9816849817 , 25.6395604396 , -85.0153846154 , -2.93731689453 , 3.92913818359 , -1.23596191406 
2018/05/16 12:28:35.852754 , 0.02587890625 , 0.1142578125 , 1.01953125 , 44.9816849817 , 25.6395604396 , -85.0153846154 , -2.93731689453 , 3.92913818359 , -1.23596191406 
2018/05/16 12:28:36.145346 , 0.02587890625 , 0.1142578125 , 1.01953125 , 44.9816849817 , 25.6395604396 , -85.0153846154 , -2.93731689453 , 3.92913818359 , -1.23596191406 
2018/05/16 12:28:36.437794 , 0.02587890625 , 0.1142578125 , 1.01953125 , 44.9816849817 , 25.6395604396 , -85.0153846154 , -4.57763671875 , 5.27191162109 , -1.08337402344 
2018/05/16 12:28:36.730175 , 0.078857421875 , 0.12158203125 , 1.03637695312 , 44.9816849817 , 25.6395604396 , -85.0153846154 , -4.57763671875 , 5.27191162109 , -1.08337402344 
2018/05/16 12:28:37.023010 , 0.078857421875 , 0.12158203125 , 1.03637695312 , 44.9816849817 , 25.6395604396 , -85.0153846154 , -4.57763671875 , 5.27191162109 , -1.08337402344 
2018/05/16 12:28:37.315326 , 0.078857421875 , 0.12158203125 , 1.03637695312 , 44.9816849817 , 25.6395604396 , -85.0153846154 , -5.13458251953 , 5.26428222656 , 0.885009765625 
2018/05/16 12:28:37.607966 , 0.035888671875 , 0.10888671875 , 1.0185546875 , 46.0312576313 , 27.7387057387 , -84.5655677656 , -5.13458251953 , 5.26428222656 , 0.885009765625 
2018/05/16 12:28:37.900372 , 0.035888671875 , 0.10888671875 , 1.0185546875 , 46.0312576313 , 27.7387057387 , -84.5655677656 , -5.13458251953 , 5.26428222656 , 0.885009765625 
2018/05/16 12:28:38.193107 , 0.035888671875 , 0.10888671875 , 1.0185546875 , 46.0312576313 , 27.7387057387 , -84.5655677656 , -5.13458251953 , 5.26428222656 , 0.885009765625 
2018/05/16 12:28:38.486629 , 0.0673828125 , 0.13623046875 , 1.04956054688 , 44.5318681319 , 27.1389499389 , -84.5655677656 , -5.34057617188 , 5.34057617188 , -0.785827636719 
2018/05/16 12:28:38.826932 , 0.0673828125 , 0.13623046875 , 1.04956054688 , 44.5318681319 , 27.1389499389 , -84.5655677656 , -5.34057617188 , 5.34057617188 , -0.785827636719 
2018/05/16 12:28:39.119506 , 0.0673828125 , 0.13623046875 , 1.04956054688 , 44.5318681319 , 27.1389499389 , -84.5655677656 , -5.34057617188 , 5.34057617188 , -0.785827636719 
2018/05/16 12:28:39.411979 , 0.0673828125 , 0.13623046875 , 1.04956054688 , 43.4822954823 , 27.1389499389 , -85.6151404151 , -5.39398193359 , 5.31005859375 , 0.991821289062 
2018/05/16 12:28:39.704387 , 0.049072265625 , 0.15185546875 , 1.06225585938 , 43.4822954823 , 27.1389499389 , -85.6151404151 , -5.39398193359 , 5.31005859375 , 0.991821289062 
2018/05/16 12:28:39.997104 , 0.049072265625 , 0.15185546875 , 1.06225585938 , 43.4822954823 , 27.1389499389 , -85.6151404151 , -5.39398193359 , 5.31005859375 , 0.991821289062 
2018/05/16 12:28:40.289589 , 0.049072265625 , 0.15185546875 , 1.06225585938 , 43.4822954823 , 27.1389499389 , -85.6151404151 , -5.39398193359 , 5.31005859375 , 0.991821289062 
2018/05/16 12:28:40.582042 , 0.015869140625 , 0.151611328125 , 1.0439453125 , 45.1316239316 , 27.5887667888 , -83.3660561661 , -5.859375 , 7.568359375 , -2.10571289062 
2018/05/16 12:28:40.874549 , 0.015869140625 , 0.151611328125 , 1.0439453125 , 45.1316239316 , 27.5887667888 , -83.3660561661 , -5.859375 , 7.568359375 , -2.10571289062 
2018/05/16 12:28:41.167365 , 0.015869140625 , 0.151611328125 , 1.0439453125 , 45.1316239316 , 27.5887667888 , -83.3660561661 , -5.859375 , 7.568359375 , -2.10571289062 
2018/05/16 12:28:41.459656 , 0.015869140625 , 0.151611328125 , 1.0439453125 , 45.5814407814 , 25.6395604396 , -86.6647130647 , -4.67681884766 , 6.28662109375 , 0.396728515625 
2018/05/16 12:28:41.752291 , 0.045166015625 , 0.094970703125 , 1.03149414062 , 45.5814407814 , 25.6395604396 , -86.6647130647 , -4.67681884766 , 6.28662109375 , 0.396728515625 
2018/05/16 12:28:42.044796 , 0.045166015625 , 0.094970703125 , 1.03149414062 , 45.5814407814 , 25.6395604396 , -86.6647130647 , -4.67681884766 , 6.28662109375 , 0.396728515625 
2018/05/16 12:28:42.337290 , 0.045166015625 , 0.094970703125 , 1.03149414062 , 45.5814407814 , 25.6395604396 , -86.6647130647 , -4.20379638672 , 3.37219238281 , -0.0381469726562 
2018/05/16 12:28:42.629737 , -0.037109375 , 0.159912109375 , 1.00390625 , 44.0820512821 , 27.5887667888 , -84.7155067155 , -4.20379638672 , 3.37219238281 , -0.0381469726562 
2018/05/16 12:28:42.922272 , -0.037109375 , 0.159912109375 , 1.00390625 , 44.0820512821 , 27.5887667888 , -84.7155067155 , -4.20379638672 , 3.37219238281 , -0.0381469726562 
2018/05/16 12:28:43.214935 , -0.037109375 , 0.159912109375 , 1.00390625 , 44.0820512821 , 27.5887667888 , -84.7155067155 , -4.20379638672 , 3.37219238281 , -0.0381469726562 
2018/05/16 12:28:43.507328 , 0.015380859375 , 0.10400390625 , 1.02685546875 , 47.2307692308 , 27.2888888889 , -85.1653235653 , -5.08117675781 , 5.08880615234 , 0.823974609375 
2018/05/16 12:28:43.799910 , 0.015380859375 , 0.10400390625 , 1.02685546875 , 47.2307692308 , 27.2888888889 , -85.1653235653 , -5.08117675781 , 5.08880615234 , 0.823974609375 
2018/05/16 12:28:44.092608 , 0.015380859375 , 0.10400390625 , 1.02685546875 , 47.2307692308 , 27.2888888889 , -85.1653235653 , -5.08117675781 , 5.08880615234 , 0.823974609375 
2018/05/16 12:28:44.385293 , 0.015380859375 , 0.10400390625 , 1.02685546875 , 47.2307692308 , 27.2888888889 , -85.1653235653 , -5.28717041016 , 4.73785400391 , -1.63269042969 
2018/05/16 12:28:44.677389 , 0.006591796875 , 0.121337890625 , 0.9814453125 , 43.1824175824 , 27.1389499389 , -85.0153846154 , -5.28717041016 , 4.73785400391 , -1.63269042969 
2018/05/16 12:28:44.969912 , 0.006591796875 , 0.121337890625 , 0.9814453125 , 43.1824175824 , 27.1389499389 , -85.0153846154 , -5.28717041016 , 4.73785400391 , -1.63269042969 
2018/05/16 12:28:45.262564 , 0.006591796875 , 0.121337890625 , 0.9814453125 , 43.1824175824 , 27.1389499389 , -85.0153846154 , -5.28717041016 , 4.73785400391 , -1.63269042969 
2018/05/16 12:28:45.554989 , 0.04443359375 , 0.113037109375 , 1.05639648438 , 46.4810744811 , 27.2888888889 , -84.7155067155 , -6.34002685547 , 4.77600097656 , -2.32696533203 
2018/05/16 12:28:45.847535 , 0.04443359375 , 0.113037109375 , 1.05639648438 , 46.4810744811 , 27.2888888889 , -84.7155067155 , -6.34002685547 , 4.77600097656 , -2.32696533203 
2018/05/16 12:28:46.140275 , 0.04443359375 , 0.113037109375 , 1.05639648438 , 46.4810744811 , 27.2888888889 , -84.7155067155 , -6.34002685547 , 4.77600097656 , -2.32696533203 
2018/05/16 12:28:46.432557 , 0.04443359375 , 0.113037109375 , 1.05639648438 , 43.7821733822 , 26.0893772894 , -84.5655677656 , -3.18145751953 , 4.65393066406 , -2.29644775391 
2018/05/16 12:28:46.725086 , -0.028076171875 , 0.146728515625 , 0.988037109375 , 43.7821733822 , 26.0893772894 , -84.5655677656 , -3.18145751953 , 4.65393066406 , -2.29644775391 
2018/05/16 12:28:47.017619 , -0.028076171875 , 0.146728515625 , 0.988037109375 , 43.7821733822 , 26.0893772894 , -84.5655677656 , -3.18145751953 , 4.65393066406 , -2.29644775391 
2018/05/16 12:28:47.310221 , -0.028076171875 , 0.146728515625 , 0.988037109375 , 43.7821733822 , 26.0893772894 , -84.5655677656 , -4.63104248047 , 2.29644775391 , 0.221252441406 
2018/05/16 12:28:47.602647 , 0.041259765625 , 0.12744140625 , 1.021484375 , 44.9816849817 , 26.0893772894 , -85.6151404151 , -4.63104248047 , 2.29644775391 , 0.221252441406 
2018/05/16 12:28:47.895253 , 0.041259765625 , 0.12744140625 , 1.021484375 , 44.9816849817 , 26.0893772894 , -85.6151404151 , -4.63104248047 , 2.29644775391 , 0.221252441406 
2018/05/16 12:28:48.187896 , 0.041259765625 , 0.12744140625 , 1.021484375 , 44.9816849817 , 26.0893772894 , -85.6151404151 , -4.63104248047 , 2.29644775391 , 0.221252441406 
2018/05/16 12:28:48.480338 , 0.041259765625 , 0.12744140625 , 1.021484375 , 46.0312576313 , 26.6891330891 , -83.515995116 , -5.13458251953 , 4.11987304688 , -0.473022460938 
2018/05/16 12:28:48.772804 , 0.055419921875 , 0.16064453125 , 0.990478515625 , 46.0312576313 , 26.6891330891 , -83.515995116 , -5.13458251953 , 4.11987304688 , -0.473022460938 
2018/05/16 12:28:49.065496 , 0.055419921875 , 0.16064453125 , 0.990478515625 , 46.0312576313 , 26.6891330891 , -83.515995116 , -5.13458251953 , 4.11987304688 , -0.473022460938 
2018/05/16 12:28:49.357827 , 0.055419921875 , 0.16064453125 , 0.990478515625 , 46.0312576313 , 26.6891330891 , -83.515995116 , -3.19671630859 , 3.10516357422 , -0.381469726562 
2018/05/16 12:28:49.650302 , 0.034912109375 , 0.14404296875 , 1.0185546875 , 44.9816849817 , 27.1389499389 , -85.915018315 , -3.19671630859 , 3.10516357422 , -0.381469726562 
2018/05/16 12:28:49.942931 , 0.034912109375 , 0.14404296875 , 1.0185546875 , 44.9816849817 , 27.1389499389 , -85.915018315 , -3.19671630859 , 3.10516357422 , -0.381469726562 
2018/05/16 12:28:50.235532 , 0.034912109375 , 0.14404296875 , 1.0185546875 , 44.9816849817 , 27.1389499389 , -85.915018315 , -3.19671630859 , 3.10516357422 , -0.381469726562 
2018/05/16 12:28:50.527945 , 0.018310546875 , 0.121337890625 , 1.08276367188 , 45.7313797314 , 26.2393162393 , -85.1653235653 , -1.66320800781 , 5.02777099609 , 0.297546386719 
2018/05/16 12:28:50.820465 , 0.018310546875 , 0.121337890625 , 1.08276367188 , 45.7313797314 , 26.2393162393 , -85.1653235653 , -1.66320800781 , 5.02777099609 , 0.297546386719 
2018/05/16 12:28:51.113129 , 0.018310546875 , 0.121337890625 , 1.08276367188 , 45.7313797314 , 26.2393162393 , -85.1653235653 , -1.66320800781 , 5.02777099609 , 0.297546386719 
2018/05/16 12:28:51.405607 , 0.018310546875 , 0.121337890625 , 1.08276367188 , 45.4315018315 , 27.5887667888 , -84.7155067155 , -2.13623046875 , 3.25012207031 , 1.46484375 
2018/05/16 12:28:51.697997 , 0.08984375 , 0.125 , 1.015625 , 45.4315018315 , 27.5887667888 , -84.7155067155 , -2.13623046875 , 3.25012207031 , 1.46484375 
2018/05/16 12:28:51.990515 , 0.08984375 , 0.125 , 1.015625 , 45.4315018315 , 27.5887667888 , -84.7155067155 , -2.13623046875 , 3.25012207031 , 1.46484375 
2018/05/16 12:28:52.283073 , 0.08984375 , 0.125 , 1.015625 , 45.4315018315 , 27.5887667888 , -84.7155067155 , -2.13623046875 , 3.25012207031 , 1.46484375 
2018/05/16 12:28:52.575532 , 0.012451171875 , 0.1474609375 , 1.00415039062 , 44.231990232 , 28.1885225885 , -83.515995116 , -4.44793701172 , 6.62231445312 , -0.373840332031 
2018/05/16 12:28:52.868033 , 0.012451171875 , 0.1474609375 , 1.00415039062 , 44.231990232 , 28.1885225885 , -83.515995116 , -4.44793701172 , 6.62231445312 , -0.373840332031 
2018/05/16 12:28:53.160602 , 0.012451171875 , 0.1474609375 , 1.00415039062 , 44.231990232 , 28.1885225885 , -83.515995116 , -4.44793701172 , 6.62231445312 , -0.373840332031 
2018/05/16 12:28:53.453075 , 0.012451171875 , 0.1474609375 , 1.00415039062 , 43.7821733822 , 26.0893772894 , -84.5655677656 , -4.93621826172 , 4.47082519531 , -0.541687011719 
2018/05/16 12:28:53.745559 , -0.015869140625 , 0.17724609375 , 1.02026367188 , 43.7821733822 , 26.0893772894 , -84.5655677656 , -4.93621826172 , 4.47082519531 , -0.541687011719 
2018/05/16 12:28:54.038253 , -0.015869140625 , 0.17724609375 , 1.02026367188 , 43.7821733822 , 26.0893772894 , -84.5655677656 , -4.93621826172 , 4.47082519531 , -0.541687011719 
2018/05/16 12:28:54.330679 , -0.015869140625 , 0.17724609375 , 1.02026367188 , 43.7821733822 , 26.0893772894 , -84.5655677656 , -6.52313232422 , 7.11059570312 , -1.60217285156 
2018/05/16 12:28:54.623135 , 0.04296875 , 0.150390625 , 0.99609375 , 44.5318681319 , 28.4884004884 , -85.0153846154 , -6.52313232422 , 7.11059570312 , -1.60217285156 
2018/05/16 12:28:54.964427 , 0.04296875 , 0.150390625 , 0.99609375 , 44.5318681319 , 28.4884004884 , -85.0153846154 , -6.52313232422 , 7.11059570312 , -1.60217285156 
2018/05/16 12:28:55.257156 , 0.04296875 , 0.150390625 , 0.99609375 , 44.5318681319 , 28.4884004884 , -85.0153846154 , -6.52313232422 , 7.11059570312 , -1.60217285156 
2018/05/16 12:28:55.549432 , 0.022705078125 , 0.1103515625 , 1.03442382812 , 45.2815628816 , 26.0893772894 , -82.9162393162 , -5.84411621094 , 2.93731689453 , -0.167846679688 
2018/05/16 12:28:55.841958 , 0.022705078125 , 0.1103515625 , 1.03442382812 , 45.2815628816 , 26.0893772894 , -82.9162393162 , -5.84411621094 , 2.93731689453 , -0.167846679688 
2018/05/16 12:28:56.134730 , 0.022705078125 , 0.1103515625 , 1.03442382812 , 45.2815628816 , 26.0893772894 , -82.9162393162 , -5.84411621094 , 2.93731689453 , -0.167846679688 
2018/05/16 12:28:56.427294 , 0.022705078125 , 0.1103515625 , 1.03442382812 , 45.5814407814 , 27.4388278388 , -85.3152625153 , -5.20324707031 , 4.73785400391 , -0.0839233398438 
2018/05/16 12:28:56.719486 , 0.0556640625 , 0.066650390625 , 0.995361328125 , 45.5814407814 , 27.4388278388 , -85.3152625153 , -5.20324707031 , 4.73785400391 , -0.0839233398438 
2018/05/16 12:28:57.012077 , 0.0556640625 , 0.066650390625 , 0.995361328125 , 45.5814407814 , 27.4388278388 , -85.3152625153 , -5.20324707031 , 4.73785400391 , -0.0839233398438 
2018/05/16 12:28:57.304622 , 0.0556640625 , 0.066650390625 , 0.995361328125 , 45.5814407814 , 27.4388278388 , -85.3152625153 , -5.27954101562 , 4.72259521484 , 0.259399414062 
2018/05/16 12:28:57.597144 , 0.0009765625 , 0.133056640625 , 1.08178710938 , 45.5814407814 , 26.6891330891 , -85.915018315 , -5.27954101562 , 4.72259521484 , 0.259399414062 
2018/05/16 12:28:57.889591 , 0.0009765625 , 0.133056640625 , 1.08178710938 , 45.5814407814 , 26.6891330891 , -85.915018315 , -5.27954101562 , 4.72259521484 , 0.259399414062 
2018/05/16 12:28:58.182365 , 0.0009765625 , 0.133056640625 , 1.08178710938 , 45.5814407814 , 26.6891330891 , -85.915018315 , -5.27954101562 , 4.72259521484 , 0.259399414062 
2018/05/16 12:28:58.474603 , 0.0009765625 , 0.133056640625 , 1.08178710938 , 43.4822954823 , 26.3892551893 , -83.2161172161 , -4.73785400391 , 3.95202636719 , -0.48828125 
2018/05/16 12:28:58.767245 , 0.052734375 , 0.12548828125 , 0.9755859375 , 43.4822954823 , 26.3892551893 , -83.2161172161 , -4.73785400391 , 3.95202636719 , -0.48828125 
2018/05/16 12:28:59.059743 , 0.052734375 , 0.12548828125 , 0.9755859375 , 43.4822954823 , 26.3892551893 , -83.2161172161 , -4.73785400391 , 3.95202636719 , -0.48828125 
2018/05/16 12:28:59.352191 , 0.052734375 , 0.12548828125 , 0.9755859375 , 43.4822954823 , 26.3892551893 , -83.2161172161 , -3.37982177734 , 6.58416748047 , 1.49536132812 
2018/05/16 12:28:59.644649 , 0.03662109375 , 0.14599609375 , 1.02514648438 , 45.2815628816 , 25.6395604396 , -84.5655677656 , -3.37982177734 , 6.58416748047 , 1.49536132812 
2018/05/16 12:28:59.937177 , 0.03662109375 , 0.14599609375 , 1.02514648438 , 45.2815628816 , 25.6395604396 , -84.5655677656 , -3.37982177734 , 6.58416748047 , 1.49536132812 
2018/05/16 12:29:00.229787 , 0.03662109375 , 0.14599609375 , 1.02514648438 , 45.2815628816 , 25.6395604396 , -84.5655677656 , -3.37982177734 , 6.58416748047 , 1.49536132812 
2018/05/16 12:29:00.522232 , 0.015869140625 , 0.1201171875 , 0.992919921875 , 43.7821733822 , 27.1389499389 , -85.915018315 , -4.08172607422 , 4.49371337891 , -0.289916992188 
2018/05/16 12:29:00.814910 , 0.015869140625 , 0.1201171875 , 0.992919921875 , 43.7821733822 , 27.1389499389 , -85.915018315 , -4.08172607422 , 4.49371337891 , -0.289916992188 
2018/05/16 12:29:01.107450 , 0.015869140625 , 0.1201171875 , 0.992919921875 , 43.7821733822 , 27.1389499389 , -85.915018315 , -4.08172607422 , 4.49371337891 , -0.289916992188 
2018/05/16 12:29:01.399792 , 0.015869140625 , 0.1201171875 , 0.992919921875 , 43.4822954823 , 27.7387057387 , -83.2161172161 , -5.86700439453 , 5.06591796875 , -0.541687011719 
2018/05/16 12:29:01.692617 , 0.045654296875 , 0.16015625 , 1.017578125 , 43.4822954823 , 27.7387057387 , -83.2161172161 , -5.86700439453 , 5.06591796875 , -0.541687011719 
2018/05/16 12:29:01.985052 , 0.045654296875 , 0.16015625 , 1.017578125 , 43.4822954823 , 27.7387057387 , -83.2161172161 , -5.86700439453 , 5.06591796875 , -0.541687011719 
2018/05/16 12:29:02.277503 , 0.045654296875 , 0.16015625 , 1.017578125 , 43.4822954823 , 27.7387057387 , -83.2161172161 , -5.86700439453 , 5.06591796875 , -0.541687011719 
2018/05/16 12:29:02.569735 , 0.04296875 , 0.07177734375 , 0.984619140625 , 45.2815628816 , 26.3892551893 , -86.3648351648 , -4.36401367188 , 5.56945800781 , -0.900268554688 
2018/05/16 12:29:02.862374 , 0.04296875 , 0.07177734375 , 0.984619140625 , 45.2815628816 , 26.3892551893 , -86.3648351648 , -4.36401367188 , 5.56945800781 , -0.900268554688 
2018/05/16 12:29:03.154914 , 0.04296875 , 0.07177734375 , 0.984619140625 , 45.2815628816 , 26.3892551893 , -86.3648351648 , -4.36401367188 , 5.56945800781 , -0.900268554688 
2018/05/16 12:29:03.447455 , 0.04296875 , 0.07177734375 , 0.984619140625 , 45.5814407814 , 28.1885225885 , -85.6151404151 , -5.53894042969 , 4.39453125 , 1.08337402344 
2018/05/16 12:29:03.739749 , -0.01123046875 , 0.10302734375 , 0.968994140625 , 45.5814407814 , 28.1885225885 , -85.6151404151 , -5.53894042969 , 4.39453125 , 1.08337402344 
2018/05/16 12:29:04.032271 , -0.01123046875 , 0.10302734375 , 0.968994140625 , 45.5814407814 , 28.1885225885 , -85.6151404151 , -5.53894042969 , 4.39453125 , 1.08337402344 
2018/05/16 12:29:04.324848 , -0.01123046875 , 0.10302734375 , 0.968994140625 , 45.5814407814 , 28.1885225885 , -85.6151404151 , -4.33349609375 , 4.53186035156 , -0.473022460938 
2018/05/16 12:29:04.617340 , -0.009521484375 , 0.1220703125 , 1.01806640625 , 44.9816849817 , 27.1389499389 , -83.2161172161 , -4.33349609375 , 4.53186035156 , -0.473022460938 
2018/05/16 12:29:04.910154 , -0.009521484375 , 0.1220703125 , 1.01806640625 , 44.9816849817 , 27.1389499389 , -83.2161172161 , -4.33349609375 , 4.53186035156 , -0.473022460938 
2018/05/16 12:29:05.251226 , -0.009521484375 , 0.1220703125 , 1.01806640625 , 44.9816849817 , 27.1389499389 , -83.2161172161 , -4.33349609375 , 4.53186035156 , -0.473022460938 
2018/05/16 12:29:05.543616 , 0.07470703125 , 0.11083984375 , 1.08154296875 , 44.6818070818 , 27.8886446886 , -84.4156288156 , -3.65447998047 , 2.50244140625 , 1.04522705078 
2018/05/16 12:29:05.836075 , 0.07470703125 , 0.11083984375 , 1.08154296875 , 44.6818070818 , 27.8886446886 , -84.4156288156 , -3.65447998047 , 2.50244140625 , 1.04522705078 
2018/05/16 12:29:06.128905 , 0.07470703125 , 0.11083984375 , 1.08154296875 , 44.6818070818 , 27.8886446886 , -84.4156288156 , -3.65447998047 , 2.50244140625 , 1.04522705078 
2018/05/16 12:29:06.421309 , 0.07470703125 , 0.11083984375 , 1.08154296875 , 44.6818070818 , 27.8886446886 , -84.4156288156 , -4.93621826172 , 5.88989257812 , -0.740051269531 
2018/05/16 12:29:06.713727 , 0.06640625 , 0.10791015625 , 1.0107421875 , 44.6818070818 , 27.8886446886 , -84.4156288156 , -4.93621826172 , 5.88989257812 , -0.740051269531 
2018/05/16 12:29:07.006184 , 0.06640625 , 0.10791015625 , 1.0107421875 , 44.6818070818 , 27.8886446886 , -84.4156288156 , -4.93621826172 , 5.88989257812 , -0.740051269531 
2018/05/16 12:29:07.298754 , 0.06640625 , 0.10791015625 , 1.0107421875 , 44.6818070818 , 27.8886446886 , -84.4156288156 , -4.31060791016 , 5.39398193359 , -0.343322753906 
2018/05/16 12:29:07.591305 , 0.012939453125 , 0.141357421875 , 1.03076171875 , 46.3311355311 , 26.0893772894 , -86.6647130647 , -4.31060791016 , 5.39398193359 , -0.343322753906 
2018/05/16 12:29:07.883696 , 0.012939453125 , 0.141357421875 , 1.03076171875 , 46.3311355311 , 26.0893772894 , -86.6647130647 , -4.31060791016 , 5.39398193359 , -0.343322753906 
2018/05/16 12:29:08.176335 , 0.012939453125 , 0.141357421875 , 1.03076171875 , 46.3311355311 , 26.0893772894 , -86.6647130647 , -4.31060791016 , 5.39398193359 , -0.343322753906 
2018/05/16 12:29:08.468860 , 0.012939453125 , 0.141357421875 , 1.03076171875 , 46.3311355311 , 26.0893772894 , -86.6647130647 , -3.35693359375 , 4.37927246094 , -0.778198242188 
2018/05/16 12:29:08.761237 , 0.016357421875 , 0.106689453125 , 1.07055664062 , 46.3311355311 , 26.0893772894 , -86.6647130647 , -3.35693359375 , 4.37927246094 , -0.778198242188 
2018/05/16 12:29:09.053880 , 0.016357421875 , 0.106689453125 , 1.07055664062 , 46.3311355311 , 26.0893772894 , -86.6647130647 , -3.35693359375 , 4.37927246094 , -0.778198242188 
2018/05/16 12:29:09.346274 , 0.016357421875 , 0.106689453125 , 1.07055664062 , 46.3311355311 , 26.0893772894 , -86.6647130647 , -1.26647949219 , 4.50134277344 , -0.328063964844 
2018/05/16 12:29:09.638752 , -0.012451171875 , 0.1064453125 , 1.03491210938 , 44.5318681319 , 25.3396825397 , -86.6647130647 , -1.26647949219 , 4.50134277344 , -0.328063964844 
2018/05/16 12:29:09.931304 , -0.012451171875 , 0.1064453125 , 1.03491210938 , 44.5318681319 , 25.3396825397 , -86.6647130647 , -1.26647949219 , 4.50134277344 , -0.328063964844 
2018/05/16 12:29:10.223952 , -0.012451171875 , 0.1064453125 , 1.03491210938 , 44.5318681319 , 25.3396825397 , -86.6647130647 , -1.26647949219 , 4.50134277344 , -0.328063964844 
2018/05/16 12:29:10.516394 , 0.009521484375 , 0.143310546875 , 1.02807617188 , 44.5318681319 , 25.3396825397 , -86.6647130647 , -4.63104248047 , 4.15802001953 , 0.350952148438 
2018/05/16 12:29:10.809029 , 0.009521484375 , 0.143310546875 , 1.02807617188 , 44.5318681319 , 25.3396825397 , -86.6647130647 , -4.63104248047 , 4.15802001953 , 0.350952148438 
2018/05/16 12:29:11.101873 , 0.009521484375 , 0.143310546875 , 1.02807617188 , 44.5318681319 , 25.3396825397 , -86.6647130647 , -4.63104248047 , 4.15802001953 , 0.350952148438 
2018/05/16 12:29:11.394194 , 0.009521484375 , 0.143310546875 , 1.02807617188 , 45.4315018315 , 26.2393162393 , -85.7650793651 , -3.93676757812 , 3.85284423828 , 0.320434570312 
2018/05/16 12:29:11.686745 , 0.027587890625 , 0.089599609375 , 1.02612304688 , 45.4315018315 , 26.2393162393 , -85.7650793651 , -3.93676757812 , 3.85284423828 , 0.320434570312 
2018/05/16 12:29:11.979432 , 0.027587890625 , 0.089599609375 , 1.02612304688 , 45.4315018315 , 26.2393162393 , -85.7650793651 , -3.93676757812 , 3.85284423828 , 0.320434570312 
2018/05/16 12:29:12.271969 , 0.027587890625 , 0.089599609375 , 1.02612304688 , 45.4315018315 , 26.2393162393 , -85.7650793651 , -3.93676757812 , 3.85284423828 , 0.320434570312 
2018/05/16 12:29:12.564585 , 0.05126953125 , 0.1806640625 , 1.01123046875 , 45.4315018315 , 26.2393162393 , -85.7650793651 , -4.66156005859 , 6.04248046875 , -1.42669677734 
2018/05/16 12:29:12.857135 , 0.05126953125 , 0.1806640625 , 1.01123046875 , 45.4315018315 , 26.2393162393 , -85.7650793651 , -4.66156005859 , 6.04248046875 , -1.42669677734 
2018/05/16 12:29:13.149885 , 0.05126953125 , 0.1806640625 , 1.01123046875 , 45.4315018315 , 26.2393162393 , -85.7650793651 , -4.66156005859 , 6.04248046875 , -1.42669677734 
2018/05/16 12:29:13.442328 , 0.05126953125 , 0.1806640625 , 1.01123046875 , 46.1811965812 , 28.6383394383 , -85.4652014652 , -3.63159179688 , 3.34167480469 , -0.617980957031 
2018/05/16 12:29:13.734848 , 0.0224609375 , 0.136962890625 , 0.99267578125 , 46.1811965812 , 28.6383394383 , -85.4652014652 , -3.63159179688 , 3.34167480469 , -0.617980957031 
2018/05/16 12:29:14.027833 , 0.0224609375 , 0.136962890625 , 0.99267578125 , 46.1811965812 , 28.6383394383 , -85.4652014652 , -3.63159179688 , 3.34167480469 , -0.617980957031 
2018/05/16 12:29:14.320070 , 0.0224609375 , 0.136962890625 , 0.99267578125 , 46.1811965812 , 28.6383394383 , -85.4652014652 , -5.95855712891 , 6.07299804688 , -1.0986328125 
2018/05/16 12:29:14.612558 , 0.047119140625 , 0.091796875 , 1.02514648438 , 46.1811965812 , 28.6383394383 , -85.4652014652 , -5.95855712891 , 6.07299804688 , -1.0986328125 
2018/05/16 12:29:14.905169 , 0.047119140625 , 0.091796875 , 1.02514648438 , 46.1811965812 , 28.6383394383 , -85.4652014652 , -5.95855712891 , 6.07299804688 , -1.0986328125 
2018/05/16 12:29:15.197856 , 0.047119140625 , 0.091796875 , 1.02514648438 , 46.1811965812 , 28.6383394383 , -85.4652014652 , -5.95855712891 , 6.07299804688 , -1.0986328125 
2018/05/16 12:29:15.490450 , 0.047119140625 , 0.091796875 , 1.02514648438 , 46.1811965812 , 28.6383394383 , -85.4652014652 , -4.68444824219 , 4.43267822266 , -0.465393066406 
2018/05/16 12:29:15.782865 , 0.024658203125 , 0.099365234375 , 1.07861328125 , 46.1811965812 , 28.6383394383 , -85.4652014652 , -4.68444824219 , 4.43267822266 , -0.465393066406 
2018/05/16 12:29:16.075710 , 0.024658203125 , 0.099365234375 , 1.07861328125 , 46.1811965812 , 28.6383394383 , -85.4652014652 , -4.68444824219 , 4.43267822266 , -0.465393066406 
2018/05/16 12:29:16.368027 , 0.024658203125 , 0.099365234375 , 1.07861328125 , 46.1811965812 , 28.6383394383 , -85.4652014652 , -5.40924072266 , 4.85992431641 , -1.3427734375 
2018/05/16 12:29:16.660715 , 0.03125 , 0.087646484375 , 1.05834960938 , 44.6818070818 , 25.7894993895 , -83.8158730159 , -5.40924072266 , 4.85992431641 , -1.3427734375 
2018/05/16 12:29:16.953187 , 0.03125 , 0.087646484375 , 1.05834960938 , 44.6818070818 , 25.7894993895 , -83.8158730159 , -5.40924072266 , 4.85992431641 , -1.3427734375 
2018/05/16 12:29:17.245934 , 0.03125 , 0.087646484375 , 1.05834960938 , 44.6818070818 , 25.7894993895 , -83.8158730159 , -5.40924072266 , 4.85992431641 , -1.3427734375 
2018/05/16 12:29:17.538282 , 0.04931640625 , 0.134765625 , 0.968017578125 , 45.5814407814 , 26.3892551893 , -85.0153846154 , -3.74603271484 , 4.16564941406 , 0.137329101562 
2018/05/16 12:29:17.831046 , 0.04931640625 , 0.134765625 , 0.968017578125 , 45.5814407814 , 26.3892551893 , -85.0153846154 , -3.74603271484 , 4.16564941406 , 0.137329101562 
2018/05/16 12:29:18.123782 , 0.04931640625 , 0.134765625 , 0.968017578125 , 45.5814407814 , 26.3892551893 , -85.0153846154 , -3.74603271484 , 4.16564941406 , 0.137329101562 
2018/05/16 12:29:18.416169 , 0.04931640625 , 0.134765625 , 0.968017578125 , 45.5814407814 , 26.3892551893 , -85.0153846154 , -5.42449951172 , 5.26428222656 , -0.152587890625 
2018/05/16 12:29:18.708591 , -0.01611328125 , 0.124755859375 , 0.97314453125 , 45.5814407814 , 26.3892551893 , -85.0153846154 , -5.42449951172 , 5.26428222656 , -0.152587890625 
2018/05/16 12:29:19.001274 , -0.01611328125 , 0.124755859375 , 0.97314453125 , 45.5814407814 , 26.3892551893 , -85.0153846154 , -5.42449951172 , 5.26428222656 , -0.152587890625 
2018/05/16 12:29:19.293801 , -0.01611328125 , 0.124755859375 , 0.97314453125 , 45.5814407814 , 26.3892551893 , -85.0153846154 , -5.42449951172 , 5.26428222656 , -0.152587890625 
2018/05/16 12:29:19.587069 , 0.026611328125 , 0.1484375 , 1.02978515625 , 45.5814407814 , 26.3892551893 , -85.0153846154 , -5.01251220703 , 4.01306152344 , -1.48010253906 
2018/05/16 12:29:19.878893 , 0.026611328125 , 0.1484375 , 1.02978515625 , 45.5814407814 , 26.3892551893 , -85.0153846154 , -5.01251220703 , 4.01306152344 , -1.48010253906 
2018/05/16 12:29:20.171658 , 0.026611328125 , 0.1484375 , 1.02978515625 , 45.5814407814 , 26.3892551893 , -85.0153846154 , -5.01251220703 , 4.01306152344 , -1.48010253906 
2018/05/16 12:29:20.464167 , 0.026611328125 , 0.1484375 , 1.02978515625 , 46.1811965812 , 27.2888888889 , -86.2148962149 , -4.72259521484 , 4.73022460938 , -0.198364257812 
2018/05/16 12:29:20.756580 , 0.0283203125 , 0.1494140625 , 1.01977539062 , 46.1811965812 , 27.2888888889 , -86.2148962149 , -4.72259521484 , 4.73022460938 , -0.198364257812 
2018/05/16 12:29:21.049347 , 0.0283203125 , 0.1494140625 , 1.01977539062 , 46.1811965812 , 27.2888888889 , -86.2148962149 , -4.72259521484 , 4.73022460938 , -0.198364257812 
2018/05/16 12:29:21.341829 , 0.0283203125 , 0.1494140625 , 1.01977539062 , 46.1811965812 , 27.2888888889 , -86.2148962149 , -5.01251220703 , 3.73077392578 , -0.259399414062 
2018/05/16 12:29:21.634366 , 0.058837890625 , 0.109130859375 , 1.03637695312 , 45.1316239316 , 27.5887667888 , -86.2148962149 , -5.01251220703 , 3.73077392578 , -0.259399414062 
2018/05/16 12:29:21.926859 , 0.058837890625 , 0.109130859375 , 1.03637695312 , 45.1316239316 , 27.5887667888 , -86.2148962149 , -5.01251220703 , 3.73077392578 , -0.259399414062 
2018/05/16 12:29:22.219635 , 0.058837890625 , 0.109130859375 , 1.03637695312 , 45.1316239316 , 27.5887667888 , -86.2148962149 , -5.01251220703 , 3.73077392578 , -0.259399414062 
2018/05/16 12:29:22.512051 , -0.010498046875 , 0.13818359375 , 1.0166015625 , 45.5814407814 , 27.1389499389 , -85.915018315 , -4.34875488281 , 3.86810302734 , -1.54113769531 
2018/05/16 12:29:22.804543 , -0.010498046875 , 0.13818359375 , 1.0166015625 , 45.5814407814 , 27.1389499389 , -85.915018315 , -4.34875488281 , 3.86810302734 , -1.54113769531 
2018/05/16 12:29:23.097477 , -0.010498046875 , 0.13818359375 , 1.0166015625 , 45.5814407814 , 27.1389499389 , -85.915018315 , -4.34875488281 , 3.86810302734 , -1.54113769531 
2018/05/16 12:29:23.389931 , -0.010498046875 , 0.13818359375 , 1.0166015625 , 45.5814407814 , 27.1389499389 , -85.915018315 , -6.08062744141 , 4.04357910156 , 0.221252441406 
2018/05/16 12:29:23.682243 , -0.009033203125 , 0.117431640625 , 1.06225585938 , 45.4315018315 , 25.4896214896 , -84.4156288156 , -6.08062744141 , 4.04357910156 , 0.221252441406 
2018/05/16 12:29:23.974811 , -0.009033203125 , 0.117431640625 , 1.06225585938 , 45.4315018315 , 25.4896214896 , -84.4156288156 , -6.08062744141 , 4.04357910156 , 0.221252441406 
2018/05/16 12:29:24.267489 , -0.009033203125 , 0.117431640625 , 1.06225585938 , 45.4315018315 , 25.4896214896 , -84.4156288156 , -6.08062744141 , 4.04357910156 , 0.221252441406 
2018/05/16 12:29:24.559958 , 0.044189453125 , 0.17529296875 , 1.01440429688 , 44.3819291819 , 27.5887667888 , -85.1653235653 , -3.92913818359 , 3.79180908203 , 1.21307373047 
2018/05/16 12:29:24.852477 , 0.044189453125 , 0.17529296875 , 1.01440429688 , 44.3819291819 , 27.5887667888 , -85.1653235653 , -3.92913818359 , 3.79180908203 , 1.21307373047 
2018/05/16 12:29:25.145378 , 0.044189453125 , 0.17529296875 , 1.01440429688 , 44.3819291819 , 27.5887667888 , -85.1653235653 , -3.92913818359 , 3.79180908203 , 1.21307373047 
2018/05/16 12:29:25.437658 , 0.044189453125 , 0.17529296875 , 1.01440429688 , 44.9816849817 , 27.7387057387 , -84.5655677656 , -5.32531738281 , 3.64685058594 , -0.923156738281 
2018/05/16 12:29:25.730234 , 0.045166015625 , 0.12890625 , 1.00756835938 , 44.9816849817 , 27.7387057387 , -84.5655677656 , -5.32531738281 , 3.64685058594 , -0.923156738281 
2018/05/16 12:29:26.022763 , 0.045166015625 , 0.12890625 , 1.00756835938 , 44.9816849817 , 27.7387057387 , -84.5655677656 , -5.32531738281 , 3.64685058594 , -0.923156738281 
2018/05/16 12:29:26.315380 , 0.045166015625 , 0.12890625 , 1.00756835938 , 44.9816849817 , 27.7387057387 , -84.5655677656 , -5.48553466797 , 5.64575195312 , -1.31988525391 
2018/05/16 12:29:26.607884 , 0.042236328125 , 0.115478515625 , 1.04833984375 , 45.2815628816 , 26.3892551893 , -85.915018315 , -5.48553466797 , 5.64575195312 , -1.31988525391 
2018/05/16 12:29:26.900459 , 0.042236328125 , 0.115478515625 , 1.04833984375 , 45.2815628816 , 26.3892551893 , -85.915018315 , -5.48553466797 , 5.64575195312 , -1.31988525391 
2018/05/16 12:29:27.193238 , 0.042236328125 , 0.115478515625 , 1.04833984375 , 45.2815628816 , 26.3892551893 , -85.915018315 , -5.48553466797 , 5.64575195312 , -1.31988525391 
2018/05/16 12:29:27.485843 , 0.042236328125 , 0.115478515625 , 1.04833984375 , 46.4810744811 , 26.8390720391 , -86.2148962149 , -1.93786621094 , 3.173828125 , -0.686645507812 
2018/05/16 12:29:27.778134 , 0.027587890625 , 0.170654296875 , 1.03540039062 , 46.4810744811 , 26.8390720391 , -86.2148962149 , -1.93786621094 , 3.173828125 , -0.686645507812 
2018/05/16 12:29:28.070949 , 0.027587890625 , 0.170654296875 , 1.03540039062 , 46.4810744811 , 26.8390720391 , -86.2148962149 , -1.93786621094 , 3.173828125 , -0.686645507812 
2018/05/16 12:29:28.363219 , 0.027587890625 , 0.170654296875 , 1.03540039062 , 46.4810744811 , 26.8390720391 , -86.2148962149 , -4.82177734375 , 5.08880615234 , -1.23596191406 
2018/05/16 12:29:28.655748 , -0.0234375 , 0.156005859375 , 1.01489257812 , 47.2307692308 , 26.2393162393 , -86.2148962149 , -4.82177734375 , 5.08880615234 , -1.23596191406 
2018/05/16 12:29:28.948361 , -0.0234375 , 0.156005859375 , 1.01489257812 , 47.2307692308 , 26.2393162393 , -86.2148962149 , -4.82177734375 , 5.08880615234 , -1.23596191406 
2018/05/16 12:29:29.240902 , -0.0234375 , 0.156005859375 , 1.01489257812 , 47.2307692308 , 26.2393162393 , -86.2148962149 , -4.82177734375 , 5.08880615234 , -1.23596191406 
2018/05/16 12:29:29.533429 , 0.07861328125 , 0.107421875 , 1.05053710938 , 45.5814407814 , 27.4388278388 , -85.3152625153 , -5.04302978516 , 2.73895263672 , -1.5869140625 
2018/05/16 12:29:29.825956 , 0.07861328125 , 0.107421875 , 1.05053710938 , 45.5814407814 , 27.4388278388 , -85.3152625153 , -5.04302978516 , 2.73895263672 , -1.5869140625 
2018/05/16 12:29:30.118821 , 0.07861328125 , 0.107421875 , 1.05053710938 , 45.5814407814 , 27.4388278388 , -85.3152625153 , -5.04302978516 , 2.73895263672 , -1.5869140625 
2018/05/16 12:29:30.411224 , 0.07861328125 , 0.107421875 , 1.05053710938 , 45.7313797314 , 26.2393162393 , -84.7155067155 , -2.75421142578 , 4.18853759766 , 0.0228881835938 
2018/05/16 12:29:30.703661 , -0.002197265625 , 0.1513671875 , 1.02172851562 , 45.7313797314 , 26.2393162393 , -84.7155067155 , -2.75421142578 , 4.18853759766 , 0.0228881835938 
2018/05/16 12:29:30.996349 , -0.002197265625 , 0.1513671875 , 1.02172851562 , 45.7313797314 , 26.2393162393 , -84.7155067155 , -2.75421142578 , 4.18853759766 , 0.0228881835938 
2018/05/16 12:29:31.288814 , -0.002197265625 , 0.1513671875 , 1.02172851562 , 45.7313797314 , 26.2393162393 , -84.7155067155 , -2.75421142578 , 4.18853759766 , 0.0228881835938 
2018/05/16 12:29:31.581294 , 0.01318359375 , 0.1416015625 , 1.04077148438 , 45.7313797314 , 27.2888888889 , -83.8158730159 , -3.03649902344 , 4.03594970703 , -0.518798828125 
2018/05/16 12:29:31.873841 , 0.01318359375 , 0.1416015625 , 1.04077148438 , 45.7313797314 , 27.2888888889 , -83.8158730159 , -3.03649902344 , 4.03594970703 , -0.518798828125 
2018/05/16 12:29:32.166455 , 0.01318359375 , 0.1416015625 , 1.04077148438 , 45.7313797314 , 27.2888888889 , -83.8158730159 , -3.03649902344 , 4.03594970703 , -0.518798828125 
2018/05/16 12:29:32.459162 , 0.01318359375 , 0.1416015625 , 1.04077148438 , 44.0820512821 , 26.8390720391 , -86.2148962149 , -4.17327880859 , 5.15747070312 , -0.877380371094 
2018/05/16 12:29:32.751500 , 0.0234375 , 0.13427734375 , 1.03344726562 , 44.0820512821 , 26.8390720391 , -86.2148962149 , -4.17327880859 , 5.15747070312 , -0.877380371094 
2018/05/16 12:29:33.044192 , 0.0234375 , 0.13427734375 , 1.03344726562 , 44.0820512821 , 26.8390720391 , -86.2148962149 , -4.17327880859 , 5.15747070312 , -0.877380371094 
2018/05/16 12:29:33.336603 , 0.0234375 , 0.13427734375 , 1.03344726562 , 44.0820512821 , 26.8390720391 , -86.2148962149 , -3.44085693359 , 4.64630126953 , -0.0839233398438 
2018/05/16 12:29:33.629167 , 0.00927734375 , 0.1435546875 , 1.01440429688 , 46.3311355311 , 27.4388278388 , -85.6151404151 , -3.44085693359 , 4.64630126953 , -0.0839233398438 
2018/05/16 12:29:33.921676 , 0.00927734375 , 0.1435546875 , 1.01440429688 , 46.3311355311 , 27.4388278388 , -85.6151404151 , -3.44085693359 , 4.64630126953 , -0.0839233398438 
2018/05/16 12:29:34.214287 , 0.00927734375 , 0.1435546875 , 1.01440429688 , 46.3311355311 , 27.4388278388 , -85.6151404151 , -3.44085693359 , 4.64630126953 , -0.0839233398438 
2018/05/16 12:29:34.506789 , 0.03662109375 , 0.121826171875 , 1.06225585938 , 44.0820512821 , 27.8886446886 , -86.2148962149 , -6.57653808594 , 4.08935546875 , -0.617980957031 
2018/05/16 12:29:34.799350 , 0.03662109375 , 0.121826171875 , 1.06225585938 , 44.0820512821 , 27.8886446886 , -86.2148962149 , -6.57653808594 , 4.08935546875 , -0.617980957031 
2018/05/16 12:29:35.092082 , 0.03662109375 , 0.121826171875 , 1.06225585938 , 44.0820512821 , 27.8886446886 , -86.2148962149 , -6.57653808594 , 4.08935546875 , -0.617980957031 
2018/05/16 12:29:35.384440 , 0.03662109375 , 0.121826171875 , 1.06225585938 , 44.0820512821 , 27.8886446886 , -86.2148962149 , -2.06756591797 , 4.08935546875 , 0.0152587890625 
2018/05/16 12:29:35.676952 , 0.033447265625 , 0.100341796875 , 1.07861328125 , 44.5318681319 , 27.4388278388 , -85.0153846154 , -2.06756591797 , 4.08935546875 , 0.0152587890625 
2018/05/16 12:29:35.969533 , 0.033447265625 , 0.100341796875 , 1.07861328125 , 44.5318681319 , 27.4388278388 , -85.0153846154 , -2.06756591797 , 4.08935546875 , 0.0152587890625 
2018/05/16 12:29:36.310858 , 0.033447265625 , 0.100341796875 , 1.07861328125 , 44.5318681319 , 27.4388278388 , -85.0153846154 , -3.84521484375 , 4.58526611328 , -0.694274902344 
2018/05/16 12:29:36.603366 , 0.060791015625 , 0.102783203125 , 0.98828125 , 44.9816849817 , 27.1389499389 , -84.5655677656 , -3.84521484375 , 4.58526611328 , -0.694274902344 
2018/05/16 12:29:36.895908 , 0.060791015625 , 0.102783203125 , 0.98828125 , 44.9816849817 , 27.1389499389 , -84.5655677656 , -3.84521484375 , 4.58526611328 , -0.694274902344 
2018/05/16 12:29:37.237389 , 0.060791015625 , 0.102783203125 , 0.98828125 , 44.9816849817 , 27.1389499389 , -84.5655677656 , -3.84521484375 , 4.58526611328 , -0.694274902344 
2018/05/16 12:29:37.529743 , -0.8720703125 , 0.43115234375 , -0.090576171875 , 44.3819291819 , 26.8390720391 , -84.4156288156 , -26.4739990234 , 106.414794922 , -37.6358032227 
2018/05/16 12:29:37.822534 , -0.8720703125 , 0.43115234375 , -0.090576171875 , 44.3819291819 , 26.8390720391 , -84.4156288156 , -26.4739990234 , 106.414794922 , -37.6358032227 
2018/05/16 12:29:38.115130 , -0.8720703125 , 0.43115234375 , -0.090576171875 , 44.3819291819 , 26.8390720391 , -84.4156288156 , -26.4739990234 , 106.414794922 , -37.6358032227 
2018/05/16 12:29:38.407579 , -0.8720703125 , 0.43115234375 , -0.090576171875 , 23.5404151404 , 33.4363858364 , -110.505006105 , -20.4772949219 , 41.015625 , 69.9844360352 
2018/05/16 12:29:38.699985 , -0.7607421875 , 0.989501953125 , -0.016845703125 , 23.5404151404 , 33.4363858364 , -110.505006105 , -20.4772949219 , 41.015625 , 69.9844360352 
2018/05/16 12:29:38.992502 , -0.7607421875 , 0.989501953125 , -0.016845703125 , 23.5404151404 , 33.4363858364 , -110.505006105 , -20.4772949219 , 41.015625 , 69.9844360352 
2018/05/16 12:29:39.285037 , -0.7607421875 , 0.989501953125 , -0.016845703125 , 23.5404151404 , 33.4363858364 , -110.505006105 , -20.4772949219 , 41.015625 , 69.9844360352 
2018/05/16 12:29:39.577560 , -0.640380859375 , 0.58984375 , -0.28857421875 , 25.0398046398 , 28.6383394383 , -148.13968254 , 13.7786865234 , 8.56018066406 , -3.80706787109 
2018/05/16 12:29:39.870106 , -0.640380859375 , 0.58984375 , -0.28857421875 , 25.0398046398 , 28.6383394383 , -148.13968254 , 13.7786865234 , 8.56018066406 , -3.80706787109 
2018/05/16 12:29:40.162841 , -0.640380859375 , 0.58984375 , -0.28857421875 , 25.0398046398 , 28.6383394383 , -148.13968254 , 13.7786865234 , 8.56018066406 , -3.80706787109 
2018/05/16 12:29:40.455175 , -0.640380859375 , 0.58984375 , -0.28857421875 , 39.284004884 , 35.2356532357 , -121.75042735 , 11.3220214844 , -37.2085571289 , -8.97216796875 
2018/05/16 12:29:40.747750 , -0.856689453125 , 0.310546875 , -0.50634765625 , 39.284004884 , 35.2356532357 , -121.75042735 , 11.3220214844 , -37.2085571289 , -8.97216796875 
2018/05/16 12:29:41.040273 , -0.856689453125 , 0.310546875 , -0.50634765625 , 39.284004884 , 35.2356532357 , -121.75042735 , 11.3220214844 , -37.2085571289 , -8.97216796875 
2018/05/16 12:29:41.333008 , -0.856689453125 , 0.310546875 , -0.50634765625 , 39.284004884 , 35.2356532357 , -121.75042735 , -12.4282836914 , -6.64520263672 , 7.14111328125 
2018/05/16 12:29:41.625328 , -0.8740234375 , 0.431396484375 , 0.08935546875 , 49.6297924298 , 37.7846153846 , -102.858119658 , -12.4282836914 , -6.64520263672 , 7.14111328125 
2018/05/16 12:29:41.966684 , -0.8740234375 , 0.431396484375 , 0.08935546875 , 49.6297924298 , 37.7846153846 , -102.858119658 , -12.4282836914 , -6.64520263672 , 7.14111328125 
2018/05/16 12:29:42.259228 , -0.8740234375 , 0.431396484375 , 0.08935546875 , 49.6297924298 , 37.7846153846 , -102.858119658 , -1.72424316406 , 11.5966796875 , -5.21087646484 
2018/05/16 12:29:42.600481 , -0.941162109375 , 0.33154296875 , -0.04052734375 , 51.8788766789 , 39.7338217338 , -90.4131868132 , -1.72424316406 , 11.5966796875 , -5.21087646484 
2018/05/16 12:29:42.892974 , -0.941162109375 , 0.33154296875 , -0.04052734375 , 51.8788766789 , 39.7338217338 , -90.4131868132 , -1.72424316406 , 11.5966796875 , -5.21087646484 
2018/05/16 12:29:43.185741 , -0.941162109375 , 0.33154296875 , -0.04052734375 , 51.8788766789 , 39.7338217338 , -90.4131868132 , -1.72424316406 , 11.5966796875 , -5.21087646484 
2018/05/16 12:29:43.478086 , -0.941162109375 , 0.33154296875 , -0.04052734375 , 50.3794871795 , 40.9333333333 , -97.7601953602 , -5.10406494141 , 2.88391113281 , 0.358581542969 
2018/05/16 12:29:43.770633 , -0.913818359375 , 0.278076171875 , -0.184326171875 , 50.3794871795 , 40.9333333333 , -97.7601953602 , -5.10406494141 , 2.88391113281 , 0.358581542969 
2018/05/16 12:29:44.063403 , -0.913818359375 , 0.278076171875 , -0.184326171875 , 50.3794871795 , 40.9333333333 , -97.7601953602 , -5.10406494141 , 2.88391113281 , 0.358581542969 
2018/05/16 12:29:44.355850 , -0.913818359375 , 0.278076171875 , -0.184326171875 , 50.3794871795 , 40.9333333333 , -97.7601953602 , -3.69262695312 , 5.86700439453 , 0.274658203125 
2018/05/16 12:29:44.648283 , -0.91015625 , 0.3056640625 , -0.10302734375 , 49.4798534799 , 40.7833943834 , -98.9597069597 , -3.69262695312 , 5.86700439453 , 0.274658203125 
2018/05/16 12:29:44.940816 , -0.91015625 , 0.3056640625 , -0.10302734375 , 49.4798534799 , 40.7833943834 , -98.9597069597 , -3.69262695312 , 5.86700439453 , 0.274658203125 
2018/05/16 12:29:45.233458 , -0.91015625 , 0.3056640625 , -0.10302734375 , 49.4798534799 , 40.7833943834 , -98.9597069597 , -3.69262695312 , 5.86700439453 , 0.274658203125 
2018/05/16 12:29:45.525916 , -0.945068359375 , 0.210205078125 , -0.04638671875 , 49.7797313797 , 39.4339438339 , -98.9597069597 , -5.53894042969 , 5.93566894531 , -5.08117675781 
2018/05/16 12:29:45.818401 , -0.945068359375 , 0.210205078125 , -0.04638671875 , 49.7797313797 , 39.4339438339 , -98.9597069597 , -5.53894042969 , 5.93566894531 , -5.08117675781 
2018/05/16 12:29:46.111129 , -0.945068359375 , 0.210205078125 , -0.04638671875 , 49.7797313797 , 39.4339438339 , -98.9597069597 , -5.53894042969 , 5.93566894531 , -5.08117675781 
2018/05/16 12:29:46.403504 , -0.945068359375 , 0.210205078125 , -0.04638671875 , 51.4290598291 , 41.3831501832 , -97.4603174603 , -6.98089599609 , 4.46319580078 , -0.511169433594 
2018/05/16 12:29:46.696029 , -1.00390625 , 0.235595703125 , -0.089599609375 , 51.4290598291 , 41.3831501832 , -97.4603174603 , -6.98089599609 , 4.46319580078 , -0.511169433594 
2018/05/16 12:29:46.988954 , -1.00390625 , 0.235595703125 , -0.089599609375 , 51.4290598291 , 41.3831501832 , -97.4603174603 , -6.98089599609 , 4.46319580078 , -0.511169433594 
2018/05/16 12:29:47.281282 , -1.00390625 , 0.235595703125 , -0.089599609375 , 51.4290598291 , 41.3831501832 , -97.4603174603 , -6.98089599609 , 4.46319580078 , -0.511169433594 
2018/05/16 12:29:47.573655 , -0.904052734375 , 0.322021484375 , -0.091064453125 , 50.8293040293 , 40.7833943834 , -97.9101343101 , -2.54058837891 , 8.45336914062 , 2.44903564453 
2018/05/16 12:29:47.866205 , -0.904052734375 , 0.322021484375 , -0.091064453125 , 50.8293040293 , 40.7833943834 , -97.9101343101 , -2.54058837891 , 8.45336914062 , 2.44903564453 
2018/05/16 12:29:48.158924 , -0.904052734375 , 0.322021484375 , -0.091064453125 , 50.8293040293 , 40.7833943834 , -97.9101343101 , -2.54058837891 , 8.45336914062 , 2.44903564453 
2018/05/16 12:29:48.451380 , -0.904052734375 , 0.322021484375 , -0.091064453125 , 49.6297924298 , 40.6334554335 , -99.4095238095 , -4.69207763672 , 4.29534912109 , -0.808715820312 
2018/05/16 12:29:48.743741 , -0.944580078125 , 0.2333984375 , -0.01318359375 , 49.6297924298 , 40.6334554335 , -99.4095238095 , -4.69207763672 , 4.29534912109 , -0.808715820312 
2018/05/16 12:29:49.036296 , -0.944580078125 , 0.2333984375 , -0.01318359375 , 49.6297924298 , 40.6334554335 , -99.4095238095 , -4.69207763672 , 4.29534912109 , -0.808715820312 
2018/05/16 12:29:49.329011 , -0.944580078125 , 0.2333984375 , -0.01318359375 , 49.6297924298 , 40.6334554335 , -99.4095238095 , -4.53948974609 , 6.14929199219 , -1.75476074219 
2018/05/16 12:29:49.621525 , -0.97314453125 , 0.280029296875 , -0.053955078125 , 49.6297924298 , 40.6334554335 , -99.4095238095 , -4.53948974609 , 6.14929199219 , -1.75476074219 
2018/05/16 12:29:49.913949 , -0.97314453125 , 0.280029296875 , -0.053955078125 , 49.6297924298 , 40.6334554335 , -99.4095238095 , -4.53948974609 , 6.14929199219 , -1.75476074219 
2018/05/16 12:29:50.206455 , -0.97314453125 , 0.280029296875 , -0.053955078125 , 49.6297924298 , 40.6334554335 , -99.4095238095 , -4.53948974609 , 6.14929199219 , -1.75476074219 
2018/05/16 12:29:50.500069 , -0.913818359375 , 0.33154296875 , -0.08056640625 , 50.2295482295 , 40.1836385836 , -97.6102564103 , -4.26483154297 , 5.35583496094 , 1.96075439453 
2018/05/16 12:29:50.791495 , -0.913818359375 , 0.33154296875 , -0.08056640625 , 50.2295482295 , 40.1836385836 , -97.6102564103 , -4.26483154297 , 5.35583496094 , 1.96075439453 
2018/05/16 12:29:51.084238 , -0.913818359375 , 0.33154296875 , -0.08056640625 , 50.2295482295 , 40.1836385836 , -97.6102564103 , -4.26483154297 , 5.35583496094 , 1.96075439453 
2018/05/16 12:29:51.376589 , -0.913818359375 , 0.33154296875 , -0.08056640625 , 50.2295482295 , 40.1836385836 , -97.6102564103 , -6.20269775391 , 4.34112548828 , -2.74658203125 
2018/05/16 12:29:51.669101 , -0.98974609375 , 0.268798828125 , -0.055419921875 , 50.2295482295 , 40.1836385836 , -97.6102564103 , -6.20269775391 , 4.34112548828 , -2.74658203125 
2018/05/16 12:29:51.961589 , -0.98974609375 , 0.268798828125 , -0.055419921875 , 50.2295482295 , 40.1836385836 , -97.6102564103 , -6.20269775391 , 4.34112548828 , -2.74658203125 
2018/05/16 12:29:52.254345 , -0.98974609375 , 0.268798828125 , -0.055419921875 , 50.2295482295 , 40.1836385836 , -97.6102564103 , -6.20269775391 , 4.34112548828 , -2.74658203125 
2018/05/16 12:29:52.546686 , -0.907958984375 , 0.2529296875 , -0.105224609375 , 51.7289377289 , 40.6334554335 , -98.8097680098 , -4.04357910156 , 5.51605224609 , -0.450134277344 
2018/05/16 12:29:52.839366 , -0.907958984375 , 0.2529296875 , -0.105224609375 , 51.7289377289 , 40.6334554335 , -98.8097680098 , -4.04357910156 , 5.51605224609 , -0.450134277344 
2018/05/16 12:29:53.132083 , -0.907958984375 , 0.2529296875 , -0.105224609375 , 51.7289377289 , 40.6334554335 , -98.8097680098 , -4.04357910156 , 5.51605224609 , -0.450134277344 
2018/05/16 12:29:53.424338 , -0.907958984375 , 0.2529296875 , -0.105224609375 , 51.7289377289 , 40.6334554335 , -98.8097680098 , -5.27954101562 , 5.21850585938 , -1.07574462891 
2018/05/16 12:29:53.716844 , -0.93603515625 , 0.28369140625 , -0.06884765625 , 51.7289377289 , 40.6334554335 , -98.8097680098 , -5.27954101562 , 5.21850585938 , -1.07574462891 
2018/05/16 12:29:54.009354 , -0.93603515625 , 0.28369140625 , -0.06884765625 , 51.7289377289 , 40.6334554335 , -98.8097680098 , -5.27954101562 , 5.21850585938 , -1.07574462891 
2018/05/16 12:29:54.301950 , -0.93603515625 , 0.28369140625 , -0.06884765625 , 51.7289377289 , 40.6334554335 , -98.8097680098 , -3.02124023438 , 4.60815429688 , 1.25122070312 
2018/05/16 12:29:54.594421 , -0.89208984375 , 0.238525390625 , -0.09521484375 , 50.8293040293 , 39.7338217338 , -98.6598290598 , -3.02124023438 , 4.60815429688 , 1.25122070312 
2018/05/16 12:29:54.886946 , -0.89208984375 , 0.238525390625 , -0.09521484375 , 50.8293040293 , 39.7338217338 , -98.6598290598 , -3.02124023438 , 4.60815429688 , 1.25122070312 
2018/05/16 12:29:55.179626 , -0.89208984375 , 0.238525390625 , -0.09521484375 , 50.8293040293 , 39.7338217338 , -98.6598290598 , -3.02124023438 , 4.60815429688 , 1.25122070312 
2018/05/16 12:29:55.472039 , -0.89208984375 , 0.238525390625 , -0.09521484375 , 50.8293040293 , 39.7338217338 , -98.6598290598 , -5.02014160156 , 5.11932373047 , 0.0534057617188 
2018/05/16 12:29:55.764693 , -0.958984375 , 0.25341796875 , -0.035888671875 , 50.8293040293 , 39.7338217338 , -98.6598290598 , -5.02014160156 , 5.11932373047 , 0.0534057617188 
2018/05/16 12:29:56.057303 , -0.958984375 , 0.25341796875 , -0.035888671875 , 50.8293040293 , 39.7338217338 , -98.6598290598 , -5.02014160156 , 5.11932373047 , 0.0534057617188 
2018/05/16 12:29:56.349636 , -0.958984375 , 0.25341796875 , -0.035888671875 , 50.8293040293 , 39.7338217338 , -98.6598290598 , -4.60052490234 , 6.4697265625 , -0.991821289062 
2018/05/16 12:29:56.642157 , -0.982666015625 , 0.2958984375 , -0.0869140625 , 50.8293040293 , 39.7338217338 , -98.6598290598 , -4.60052490234 , 6.4697265625 , -0.991821289062 
2018/05/16 12:29:56.934690 , -0.982666015625 , 0.2958984375 , -0.0869140625 , 50.8293040293 , 39.7338217338 , -98.6598290598 , -4.60052490234 , 6.4697265625 , -0.991821289062 
2018/05/16 12:29:57.227377 , -0.982666015625 , 0.2958984375 , -0.0869140625 , 50.8293040293 , 39.7338217338 , -98.6598290598 , -4.60052490234 , 6.4697265625 , -0.991821289062 
2018/05/16 12:29:57.519778 , -0.9677734375 , 0.2744140625 , -0.124267578125 , 51.578998779 , 39.1340659341 , -98.21001221 , -3.37982177734 , 4.26483154297 , -1.17492675781 
2018/05/16 12:29:57.812222 , -0.9677734375 , 0.2744140625 , -0.124267578125 , 51.578998779 , 39.1340659341 , -98.21001221 , -3.37982177734 , 4.26483154297 , -1.17492675781 
2018/05/16 12:29:58.105060 , -0.9677734375 , 0.2744140625 , -0.124267578125 , 51.578998779 , 39.1340659341 , -98.21001221 , -3.37982177734 , 4.26483154297 , -1.17492675781 
2018/05/16 12:29:58.397442 , -0.9677734375 , 0.2744140625 , -0.124267578125 , 52.1787545788 , 39.284004884 , -97.7601953602 , -4.96673583984 , 5.58471679688 , -0.030517578125 
2018/05/16 12:29:58.690007 , -0.894287109375 , 0.237548828125 , -0.119384765625 , 52.1787545788 , 39.284004884 , -97.7601953602 , -4.96673583984 , 5.58471679688 , -0.030517578125 
2018/05/16 12:29:58.982409 , -0.894287109375 , 0.237548828125 , -0.119384765625 , 52.1787545788 , 39.284004884 , -97.7601953602 , -4.96673583984 , 5.58471679688 , -0.030517578125 
2018/05/16 12:29:59.275075 , -0.894287109375 , 0.237548828125 , -0.119384765625 , 52.1787545788 , 39.284004884 , -97.7601953602 , -4.96673583984 , 5.58471679688 , -0.030517578125 
2018/05/16 12:29:59.567498 , -0.93408203125 , 0.30126953125 , -0.078125 , 52.1787545788 , 39.284004884 , -97.7601953602 , -2.87628173828 , 5.87463378906 , -1.28173828125 
2018/05/16 12:29:59.860117 , -0.93408203125 , 0.30126953125 , -0.078125 , 52.1787545788 , 39.284004884 , -97.7601953602 , -2.87628173828 , 5.87463378906 , -1.28173828125 
2018/05/16 12:30:00.152838 , -0.93408203125 , 0.30126953125 , -0.078125 , 52.1787545788 , 39.284004884 , -97.7601953602 , -2.87628173828 , 5.87463378906 , -1.28173828125 
2018/05/16 12:30:00.445079 , -0.93408203125 , 0.30126953125 , -0.078125 , 52.1787545788 , 39.284004884 , -97.7601953602 , -4.13513183594 , 5.81359863281 , -1.15966796875 
2018/05/16 12:30:00.737531 , -0.9365234375 , 0.2841796875 , -0.06640625 , 52.1787545788 , 39.284004884 , -97.7601953602 , -4.13513183594 , 5.81359863281 , -1.15966796875 
2018/05/16 12:30:01.030093 , -0.9365234375 , 0.2841796875 , -0.06640625 , 52.1787545788 , 39.284004884 , -97.7601953602 , -4.13513183594 , 5.81359863281 , -1.15966796875 
2018/05/16 12:30:01.322672 , -0.9365234375 , 0.2841796875 , -0.06640625 , 52.1787545788 , 39.284004884 , -97.7601953602 , -3.34167480469 , 6.89697265625 , -0.198364257812 
2018/05/16 12:30:01.615114 , -0.848388671875 , 0.22216796875 , -0.072021484375 , 50.3794871795 , 38.5343101343 , -98.8097680098 , -3.34167480469 , 6.89697265625 , -0.198364257812 
2018/05/16 12:30:01.907713 , -0.848388671875 , 0.22216796875 , -0.072021484375 , 50.3794871795 , 38.5343101343 , -98.8097680098 , -3.34167480469 , 6.89697265625 , -0.198364257812 
2018/05/16 12:30:02.200368 , -0.848388671875 , 0.22216796875 , -0.072021484375 , 50.3794871795 , 38.5343101343 , -98.8097680098 , -3.34167480469 , 6.89697265625 , -0.198364257812 
2018/05/16 12:30:02.492853 , -0.848388671875 , 0.22216796875 , -0.072021484375 , 51.2791208791 , 38.6842490842 , -100.908913309 , -4.50897216797 , 4.43267822266 , -0.114440917969 
2018/05/16 12:30:02.785226 , -0.920654296875 , 0.26611328125 , -0.132080078125 , 51.2791208791 , 38.6842490842 , -100.908913309 , -4.50897216797 , 4.43267822266 , -0.114440917969 
2018/05/16 12:30:03.077924 , -0.920654296875 , 0.26611328125 , -0.132080078125 , 51.2791208791 , 38.6842490842 , -100.908913309 , -4.50897216797 , 4.43267822266 , -0.114440917969 
2018/05/16 12:30:03.370447 , -0.920654296875 , 0.26611328125 , -0.132080078125 , 51.2791208791 , 38.6842490842 , -100.908913309 , -2.51770019531 , 5.40161132812 , -0.205993652344 
2018/05/16 12:30:03.662781 , -0.85986328125 , 0.21826171875 , -0.1103515625 , 50.8293040293 , 40.1836385836 , -98.6598290598 , -2.51770019531 , 5.40161132812 , -0.205993652344 
2018/05/16 12:30:03.955323 , -0.85986328125 , 0.21826171875 , -0.1103515625 , 50.8293040293 , 40.1836385836 , -98.6598290598 , -2.51770019531 , 5.40161132812 , -0.205993652344 
2018/05/16 12:30:04.247931 , -0.85986328125 , 0.21826171875 , -0.1103515625 , 50.8293040293 , 40.1836385836 , -98.6598290598 , -2.51770019531 , 5.40161132812 , -0.205993652344 
2018/05/16 12:30:04.540376 , -0.91455078125 , 0.30712890625 , -0.1025390625 , 50.6793650794 , 38.8341880342 , -99.4095238095 , -3.88336181641 , 3.86810302734 , -1.01470947266 
2018/05/16 12:30:04.832911 , -0.91455078125 , 0.30712890625 , -0.1025390625 , 50.6793650794 , 38.8341880342 , -99.4095238095 , -3.88336181641 , 3.86810302734 , -1.01470947266 
2018/05/16 12:30:05.125654 , -0.91455078125 , 0.30712890625 , -0.1025390625 , 50.6793650794 , 38.8341880342 , -99.4095238095 , -3.88336181641 , 3.86810302734 , -1.01470947266 
2018/05/16 12:30:05.417959 , -0.91455078125 , 0.30712890625 , -0.1025390625 , 52.4786324786 , 38.5343101343 , -98.8097680098 , -3.60107421875 , 6.08062744141 , 0.0457763671875 
2018/05/16 12:30:05.710471 , -0.955810546875 , 0.284423828125 , -0.125732421875 , 52.4786324786 , 38.5343101343 , -98.8097680098 , -3.60107421875 , 6.08062744141 , 0.0457763671875 
2018/05/16 12:30:06.003008 , -0.955810546875 , 0.284423828125 , -0.125732421875 , 52.4786324786 , 38.5343101343 , -98.8097680098 , -3.60107421875 , 6.08062744141 , 0.0457763671875 
2018/05/16 12:30:06.295562 , -0.955810546875 , 0.284423828125 , -0.125732421875 , 52.4786324786 , 38.5343101343 , -98.8097680098 , -3.60107421875 , 6.08062744141 , 0.0457763671875 
2018/05/16 12:30:06.637028 , -0.89501953125 , 0.27392578125 , -0.098388671875 , 50.6793650794 , 39.284004884 , -99.1096459096 , -3.51715087891 , 5.59997558594 , -0.694274902344 
2018/05/16 12:30:06.978082 , -0.89501953125 , 0.27392578125 , -0.098388671875 , 50.6793650794 , 39.284004884 , -99.1096459096 , -3.51715087891 , 5.59997558594 , -0.694274902344 
2018/05/16 12:30:07.270673 , -0.89501953125 , 0.27392578125 , -0.098388671875 , 50.6793650794 , 39.284004884 , -99.1096459096 , -3.51715087891 , 5.59997558594 , -0.694274902344 
2018/05/16 12:30:07.563131 , -0.9169921875 , 0.276123046875 , -0.05859375 , 49.3299145299 , 40.3335775336 , -98.0600732601 , -2.97546386719 , 4.37164306641 , 0.663757324219 
2018/05/16 12:30:07.855798 , -0.9169921875 , 0.276123046875 , -0.05859375 , 49.3299145299 , 40.3335775336 , -98.0600732601 , -2.97546386719 , 4.37164306641 , 0.663757324219 
2018/05/16 12:30:08.148492 , -0.9169921875 , 0.276123046875 , -0.05859375 , 49.3299145299 , 40.3335775336 , -98.0600732601 , -2.97546386719 , 4.37164306641 , 0.663757324219 
2018/05/16 12:30:08.440962 , -0.9169921875 , 0.276123046875 , -0.05859375 , 50.3794871795 , 38.8341880342 , -99.4095238095 , -8.01086425781 , 2.71606445312 , -1.08337402344 
2018/05/16 12:30:08.733260 , -0.888671875 , 0.227783203125 , -0.14990234375 , 50.3794871795 , 38.8341880342 , -99.4095238095 , -8.01086425781 , 2.71606445312 , -1.08337402344 
2018/05/16 12:30:09.025924 , -0.888671875 , 0.227783203125 , -0.14990234375 , 50.3794871795 , 38.8341880342 , -99.4095238095 , -8.01086425781 , 2.71606445312 , -1.08337402344 
2018/05/16 12:30:09.318317 , -0.888671875 , 0.227783203125 , -0.14990234375 , 50.3794871795 , 38.8341880342 , -99.4095238095 , -4.56237792969 , 4.8828125 , -0.0991821289062 
2018/05/16 12:30:09.610828 , -0.945556640625 , 0.2978515625 , -0.161376953125 , 50.8293040293 , 40.1836385836 , -99.5594627595 , -4.56237792969 , 4.8828125 , -0.0991821289062 
2018/05/16 12:30:09.903332 , -0.945556640625 , 0.2978515625 , -0.161376953125 , 50.8293040293 , 40.1836385836 , -99.5594627595 , -4.56237792969 , 4.8828125 , -0.0991821289062 
2018/05/16 12:30:10.195945 , -0.945556640625 , 0.2978515625 , -0.161376953125 , 50.8293040293 , 40.1836385836 , -99.5594627595 , -4.56237792969 , 4.8828125 , -0.0991821289062 
2018/05/16 12:30:10.488399 , -0.945556640625 , 0.2978515625 , -0.161376953125 , 49.7797313797 , 40.1836385836 , -98.6598290598 , -2.77709960938 , 6.85119628906 , 0.9765625 
2018/05/16 12:30:10.781029 , -1.00610351562 , 0.23388671875 , -0.156982421875 , 49.7797313797 , 40.1836385836 , -98.6598290598 , -2.77709960938 , 6.85119628906 , 0.9765625 
2018/05/16 12:30:11.073585 , -1.00610351562 , 0.23388671875 , -0.156982421875 , 49.7797313797 , 40.1836385836 , -98.6598290598 , -2.77709960938 , 6.85119628906 , 0.9765625 
2018/05/16 12:30:11.366003 , -1.00610351562 , 0.23388671875 , -0.156982421875 , 49.7797313797 , 40.1836385836 , -98.6598290598 , -5.14984130859 , 3.90625 , -0.297546386719 
2018/05/16 12:30:11.658449 , -0.981689453125 , 0.271728515625 , -0.112548828125 , 50.5294261294 , 39.7338217338 , -100.309157509 , -5.14984130859 , 3.90625 , -0.297546386719 
2018/05/16 12:30:11.951039 , -0.981689453125 , 0.271728515625 , -0.112548828125 , 50.5294261294 , 39.7338217338 , -100.309157509 , -5.14984130859 , 3.90625 , -0.297546386719 
2018/05/16 12:30:12.243658 , -0.981689453125 , 0.271728515625 , -0.112548828125 , 50.5294261294 , 39.7338217338 , -100.309157509 , -5.14984130859 , 3.90625 , -0.297546386719 
2018/05/16 12:30:12.536062 , -0.96484375 , 0.282958984375 , -0.182373046875 , 50.6793650794 , 40.3335775336 , -101.808547009 , -2.97546386719 , 5.45501708984 , 0.617980957031 
2018/05/16 12:30:12.828550 , -0.96484375 , 0.282958984375 , -0.182373046875 , 50.6793650794 , 40.3335775336 , -101.808547009 , -2.97546386719 , 5.45501708984 , 0.617980957031 
2018/05/16 12:30:13.121423 , -0.96484375 , 0.282958984375 , -0.182373046875 , 50.6793650794 , 40.3335775336 , -101.808547009 , -2.97546386719 , 5.45501708984 , 0.617980957031 
2018/05/16 12:30:13.413636 , -0.96484375 , 0.282958984375 , -0.182373046875 , 51.7289377289 , 38.8341880342 , -101.208791209 , -8.02612304688 , 4.57763671875 , -2.16674804688 
2018/05/16 12:30:13.706305 , -0.906005859375 , 0.182373046875 , -0.111328125 , 51.7289377289 , 38.8341880342 , -101.208791209 , -8.02612304688 , 4.57763671875 , -2.16674804688 
2018/05/16 12:30:13.998662 , -0.906005859375 , 0.182373046875 , -0.111328125 , 51.7289377289 , 38.8341880342 , -101.208791209 , -8.02612304688 , 4.57763671875 , -2.16674804688 
2018/05/16 12:30:14.291451 , -0.906005859375 , 0.182373046875 , -0.111328125 , 51.7289377289 , 38.8341880342 , -101.208791209 , -8.02612304688 , 4.57763671875 , -2.16674804688 
2018/05/16 12:30:14.583758 , -0.68603515625 , 0.139404296875 , -1.05102539062 , 49.9296703297 , 39.5838827839 , -101.508669109 , -1.36566162109 , 40.1763916016 , 3.89862060547 
2018/05/16 12:30:14.876404 , -0.68603515625 , 0.139404296875 , -1.05102539062 , 49.9296703297 , 39.5838827839 , -101.508669109 , -1.36566162109 , 40.1763916016 , 3.89862060547 
2018/05/16 12:30:15.168935 , -0.68603515625 , 0.139404296875 , -1.05102539062 , 49.9296703297 , 39.5838827839 , -101.508669109 , -1.36566162109 , 40.1763916016 , 3.89862060547 
2018/05/16 12:30:15.461395 , -0.68603515625 , 0.139404296875 , -1.05102539062 , 47.6805860806 , 32.3868131868 , -112.604151404 , 9.72747802734 , 3.22723388672 , -6.9580078125 
2018/05/16 12:30:15.753779 , -0.55859375 , 0.185546875 , -0.825439453125 , 47.6805860806 , 32.3868131868 , -112.604151404 , 9.72747802734 , 3.22723388672 , -6.9580078125 
2018/05/16 12:30:16.046488 , -0.55859375 , 0.185546875 , -0.825439453125 , 47.6805860806 , 32.3868131868 , -112.604151404 , 9.72747802734 , 3.22723388672 , -6.9580078125 
2018/05/16 12:30:16.338921 , -0.55859375 , 0.185546875 , -0.825439453125 , 47.6805860806 , 32.3868131868 , -112.604151404 , -12.8021240234 , 19.6914672852 , 1.05285644531 
2018/05/16 12:30:16.631516 , -0.6181640625 , 0.51513671875 , -0.71337890625 , 47.3807081807 , 33.1365079365 , -114.253479853 , -12.8021240234 , 19.6914672852 , 1.05285644531 
2018/05/16 12:30:16.923914 , -0.6181640625 , 0.51513671875 , -0.71337890625 , 47.3807081807 , 33.1365079365 , -114.253479853 , -12.8021240234 , 19.6914672852 , 1.05285644531 
2018/05/16 12:30:17.216547 , -0.6181640625 , 0.51513671875 , -0.71337890625 , 47.3807081807 , 33.1365079365 , -114.253479853 , -12.8021240234 , 19.6914672852 , 1.05285644531 
2018/05/16 12:30:17.508911 , -0.908935546875 , 0.26806640625 , -0.155029296875 , 44.6818070818 , 36.1352869353 , -113.053968254 , -5.51605224609 , -40.7409667969 , 5.34057617188 
2018/05/16 12:30:17.801436 , -0.908935546875 , 0.26806640625 , -0.155029296875 , 44.6818070818 , 36.1352869353 , -113.053968254 , -5.51605224609 , -40.7409667969 , 5.34057617188 
2018/05/16 12:30:18.094278 , -0.908935546875 , 0.26806640625 , -0.155029296875 , 44.6818070818 , 36.1352869353 , -113.053968254 , -5.51605224609 , -40.7409667969 , 5.34057617188 
2018/05/16 12:30:18.386629 , -0.908935546875 , 0.26806640625 , -0.155029296875 , 44.6818070818 , 36.1352869353 , -113.053968254 , -5.50079345703 , -3.95202636719 , 0.450134277344 
2018/05/16 12:30:18.679040 , -0.829345703125 , 0.423828125 , 0.399658203125 , 47.8305250305 , 36.4351648352 , -100.459096459 , -5.50079345703 , -3.95202636719 , 0.450134277344 
2018/05/16 12:30:18.971585 , -0.829345703125 , 0.423828125 , 0.399658203125 , 47.8305250305 , 36.4351648352 , -100.459096459 , -5.50079345703 , -3.95202636719 , 0.450134277344 
2018/05/16 12:30:19.264052 , -0.829345703125 , 0.423828125 , 0.399658203125 , 47.8305250305 , 36.4351648352 , -100.459096459 , -5.50079345703 , -3.95202636719 , 0.450134277344 
2018/05/16 12:30:19.556575 , -0.775634765625 , 0.357666015625 , 0.369140625 , 49.6297924298 , 34.336019536 , -89.9633699634 , -1.15966796875 , 7.34710693359 , 1.10626220703 
2018/05/16 12:30:19.849085 , -0.775634765625 , 0.357666015625 , 0.369140625 , 49.6297924298 , 34.336019536 , -89.9633699634 , -1.15966796875 , 7.34710693359 , 1.10626220703 
2018/05/16 12:30:20.141933 , -0.775634765625 , 0.357666015625 , 0.369140625 , 49.6297924298 , 34.336019536 , -89.9633699634 , -1.15966796875 , 7.34710693359 , 1.10626220703 
2018/05/16 12:30:20.434331 , -0.775634765625 , 0.357666015625 , 0.369140625 , 50.8293040293 , 32.3868131868 , -89.6634920635 , -1.28173828125 , 14.3432617188 , -3.84521484375 
2018/05/16 12:30:20.726691 , -0.845458984375 , 0.437255859375 , 0.402587890625 , 50.8293040293 , 32.3868131868 , -89.6634920635 , -1.28173828125 , 14.3432617188 , -3.84521484375 
2018/05/16 12:30:21.019231 , -0.845458984375 , 0.437255859375 , 0.402587890625 , 50.8293040293 , 32.3868131868 , -89.6634920635 , -1.28173828125 , 14.3432617188 , -3.84521484375 
2018/05/16 12:30:21.311718 , -0.845458984375 , 0.437255859375 , 0.402587890625 , 50.8293040293 , 32.3868131868 , -89.6634920635 , -42.48046875 , 76.1413574219 , 56.7321777344 
2018/05/16 12:30:21.604212 , -1.16870117188 , 0.1806640625 , -1.14624023438 , 51.4290598291 , 33.2864468864 , -88.1641025641 , -42.48046875 , 76.1413574219 , 56.7321777344 
2018/05/16 12:30:21.896689 , -1.16870117188 , 0.1806640625 , -1.14624023438 , 51.4290598291 , 33.2864468864 , -88.1641025641 , -42.48046875 , 76.1413574219 , 56.7321777344 
2018/05/16 12:30:22.189338 , -1.16870117188 , 0.1806640625 , -1.14624023438 , 51.4290598291 , 33.2864468864 , -88.1641025641 , -42.48046875 , 76.1413574219 , 56.7321777344 
2018/05/16 12:30:22.481831 , -1.16870117188 , 0.1806640625 , -1.14624023438 , 46.3311355311 , 33.4363858364 , -111.854456654 , 3.86810302734 , 1.32751464844 , -7.91168212891 
2018/05/16 12:30:22.774330 , -0.70751953125 , 0.39306640625 , -0.624267578125 , 46.3311355311 , 33.4363858364 , -111.854456654 , 3.86810302734 , 1.32751464844 , -7.91168212891 
2018/05/16 12:30:23.067134 , -0.70751953125 , 0.39306640625 , -0.624267578125 , 46.3311355311 , 33.4363858364 , -111.854456654 , 3.86810302734 , 1.32751464844 , -7.91168212891 
2018/05/16 12:30:23.359469 , -0.70751953125 , 0.39306640625 , -0.624267578125 , 46.3311355311 , 33.4363858364 , -111.854456654 , -68.4280395508 , 6.30187988281 , -1.83868408203 
2018/05/16 12:30:23.651835 , -0.93896484375 , 0.39892578125 , -0.73828125 , 43.4822954823 , 33.7362637363 , -113.203907204 , -68.4280395508 , 6.30187988281 , -1.83868408203 
2018/05/16 12:30:23.944405 , -0.93896484375 , 0.39892578125 , -0.73828125 , 43.4822954823 , 33.7362637363 , -113.203907204 , -68.4280395508 , 6.30187988281 , -1.83868408203 
2018/05/16 12:30:24.237129 , -0.93896484375 , 0.39892578125 , -0.73828125 , 43.4822954823 , 33.7362637363 , -113.203907204 , -68.4280395508 , 6.30187988281 , -1.83868408203 
2018/05/16 12:30:24.529475 , 0.166015625 , -0.9208984375 , -1.19506835938 , 48.2803418803 , 33.2864468864 , -106.606593407 , -31.8069458008 , 168.640136719 , -77.9418945312 
2018/05/16 12:30:24.821988 , 0.166015625 , -0.9208984375 , -1.19506835938 , 48.2803418803 , 33.2864468864 , -106.606593407 , -31.8069458008 , 168.640136719 , -77.9418945312 
2018/05/16 12:30:25.114637 , 0.166015625 , -0.9208984375 , -1.19506835938 , 48.2803418803 , 33.2864468864 , -106.606593407 , -31.8069458008 , 168.640136719 , -77.9418945312 
2018/05/16 12:30:25.407010 , 0.166015625 , -0.9208984375 , -1.19506835938 , 46.3311355311 , 29.8378510379 , -108.855677656 , 215.003967285 , 21.1486816406 , 20.3247070312 
2018/05/16 12:30:25.699472 , -0.41162109375 , -0.785400390625 , 0.547607421875 , 46.3311355311 , 29.8378510379 , -108.855677656 , 215.003967285 , 21.1486816406 , 20.3247070312 
2018/05/16 12:30:25.992009 , -0.41162109375 , -0.785400390625 , 0.547607421875 , 46.3311355311 , 29.8378510379 , -108.855677656 , 215.003967285 , 21.1486816406 , 20.3247070312 
2018/05/16 12:30:26.284684 , -0.41162109375 , -0.785400390625 , 0.547607421875 , 46.3311355311 , 29.8378510379 , -108.855677656 , 215.003967285 , 21.1486816406 , 20.3247070312 
2018/05/16 12:30:26.577139 , -0.43505859375 , -0.169189453125 , -0.865234375 , 37.6346764347 , 33.2864468864 , -114.853235653 , 78.7582397461 , 51.6052246094 , -61.4395141602 
2018/05/16 12:30:26.869721 , -0.43505859375 , -0.169189453125 , -0.865234375 , 37.6346764347 , 33.2864468864 , -114.853235653 , 78.7582397461 , 51.6052246094 , -61.4395141602 
2018/05/16 12:30:27.162406 , -0.43505859375 , -0.169189453125 , -0.865234375 , 37.6346764347 , 33.2864468864 , -114.853235653 , 78.7582397461 , 51.6052246094 , -61.4395141602 
2018/05/16 12:30:27.454706 , -0.43505859375 , -0.169189453125 , -0.865234375 , 32.2368742369 , 36.2852258852 , -126.248595849 , 22.8805541992 , 71.1441040039 , -70.2743530273 
2018/05/16 12:30:27.747122 , -0.438720703125 , -0.059326171875 , -0.318603515625 , 32.2368742369 , 36.2852258852 , -126.248595849 , 22.8805541992 , 71.1441040039 , -70.2743530273 
2018/05/16 12:30:28.039765 , -0.438720703125 , -0.059326171875 , -0.318603515625 , 32.2368742369 , 36.2852258852 , -126.248595849 , 22.8805541992 , 71.1441040039 , -70.2743530273 
2018/05/16 12:30:28.332193 , -0.438720703125 , -0.059326171875 , -0.318603515625 , 32.2368742369 , 36.2852258852 , -126.248595849 , 17.6086425781 , 17.4255371094 , -15.9683227539 
2018/05/16 12:30:28.624831 , 0.10302734375 , -0.69677734375 , -0.445068359375 , 47.6805860806 , 41.2332112332 , -108.105982906 , 17.6086425781 , 17.4255371094 , -15.9683227539 
2018/05/16 12:30:28.917249 , 0.10302734375 , -0.69677734375 , -0.445068359375 , 47.6805860806 , 41.2332112332 , -108.105982906 , 17.6086425781 , 17.4255371094 , -15.9683227539 
2018/05/16 12:30:29.209793 , 0.10302734375 , -0.69677734375 , -0.445068359375 , 47.6805860806 , 41.2332112332 , -108.105982906 , 17.6086425781 , 17.4255371094 , -15.9683227539 
2018/05/16 12:30:29.502259 , -0.22998046875 , -1.19091796875 , -0.434814453125 , 53.6781440781 , 39.7338217338 , -81.5667887668 , -16.5863037109 , 4.66156005859 , 19.0505981445 
2018/05/16 12:30:29.794758 , -0.22998046875 , -1.19091796875 , -0.434814453125 , 53.6781440781 , 39.7338217338 , -81.5667887668 , -16.5863037109 , 4.66156005859 , 19.0505981445 
2018/05/16 12:30:30.087574 , -0.22998046875 , -1.19091796875 , -0.434814453125 , 53.6781440781 , 39.7338217338 , -81.5667887668 , -16.5863037109 , 4.66156005859 , 19.0505981445 
2018/05/16 12:30:30.379798 , -0.22998046875 , -1.19091796875 , -0.434814453125 , 53.6781440781 , 39.7338217338 , -81.5667887668 , -36.750793457 , 39.1540527344 , 19.2718505859 
2018/05/16 12:30:30.672377 , -0.15625 , -0.928955078125 , -0.53271484375 , 53.6781440781 , 39.7338217338 , -81.5667887668 , -36.750793457 , 39.1540527344 , 19.2718505859 
2018/05/16 12:30:30.964793 , -0.15625 , -0.928955078125 , -0.53271484375 , 53.6781440781 , 39.7338217338 , -81.5667887668 , -36.750793457 , 39.1540527344 , 19.2718505859 
2018/05/16 12:30:31.257636 , -0.15625 , -0.928955078125 , -0.53271484375 , 53.6781440781 , 39.7338217338 , -81.5667887668 , -36.750793457 , 39.1540527344 , 19.2718505859 
2018/05/16 12:30:31.549909 , -0.14013671875 , -0.59326171875 , -0.2978515625 , 60.1255189255 , 43.7821733822 , -62.2246642247 , 58.3953857422 , -9.83428955078 , 29.7241210938 
2018/05/16 12:30:31.842434 , -0.14013671875 , -0.59326171875 , -0.2978515625 , 60.1255189255 , 43.7821733822 , -62.2246642247 , 58.3953857422 , -9.83428955078 , 29.7241210938 
2018/05/16 12:30:32.135107 , -0.14013671875 , -0.59326171875 , -0.2978515625 , 60.1255189255 , 43.7821733822 , -62.2246642247 , 58.3953857422 , -9.83428955078 , 29.7241210938 
2018/05/16 12:30:32.427644 , -0.14013671875 , -0.59326171875 , -0.2978515625 , 60.1255189255 , 43.7821733822 , -62.2246642247 , -31.7993164062 , 13.3895874023 , -4.82177734375 
2018/05/16 12:30:32.719947 , -0.3876953125 , -0.786376953125 , -0.456298828125 , 60.1255189255 , 43.7821733822 , -62.2246642247 , -31.7993164062 , 13.3895874023 , -4.82177734375 
2018/05/16 12:30:33.012478 , -0.3876953125 , -0.786376953125 , -0.456298828125 , 60.1255189255 , 43.7821733822 , -62.2246642247 , -31.7993164062 , 13.3895874023 , -4.82177734375 
2018/05/16 12:30:33.305070 , -0.3876953125 , -0.786376953125 , -0.456298828125 , 60.1255189255 , 43.7821733822 , -62.2246642247 , -4.40979003906 , 10.4141235352 , -3.24249267578 
2018/05/16 12:30:33.597670 , -0.25439453125 , -0.861083984375 , -0.4658203125 , 52.7785103785 , 48.7301587302 , -43.9321123321 , -4.40979003906 , 10.4141235352 , -3.24249267578 
2018/05/16 12:30:33.890028 , -0.25439453125 , -0.861083984375 , -0.4658203125 , 52.7785103785 , 48.7301587302 , -43.9321123321 , -4.40979003906 , 10.4141235352 , -3.24249267578 
2018/05/16 12:30:34.182664 , -0.25439453125 , -0.861083984375 , -0.4658203125 , 52.7785103785 , 48.7301587302 , -43.9321123321 , -4.40979003906 , 10.4141235352 , -3.24249267578 
2018/05/16 12:30:34.475024 , -0.25439453125 , -0.861083984375 , -0.4658203125 , 52.7785103785 , 48.7301587302 , -43.9321123321 , -2.10571289062 , 2.86865234375 , 0.679016113281 
2018/05/16 12:30:34.767760 , -0.32568359375 , -0.79296875 , -0.453125 , 52.7785103785 , 48.7301587302 , -43.9321123321 , -2.10571289062 , 2.86865234375 , 0.679016113281 
2018/05/16 12:30:35.060234 , -0.32568359375 , -0.79296875 , -0.453125 , 52.7785103785 , 48.7301587302 , -43.9321123321 , -2.10571289062 , 2.86865234375 , 0.679016113281 
2018/05/16 12:30:35.352639 , -0.32568359375 , -0.79296875 , -0.453125 , 52.7785103785 , 48.7301587302 , -43.9321123321 , -6.62994384766 , 6.88171386719 , 2.63214111328 
2018/05/16 12:30:35.645071 , -0.28955078125 , -0.78515625 , -0.50244140625 , 55.3274725275 , 49.4798534799 , -43.9321123321 , -6.62994384766 , 6.88171386719 , 2.63214111328 
2018/05/16 12:30:35.937603 , -0.28955078125 , -0.78515625 , -0.50244140625 , 55.3274725275 , 49.4798534799 , -43.9321123321 , -6.62994384766 , 6.88171386719 , 2.63214111328 
2018/05/16 12:30:36.230266 , -0.28955078125 , -0.78515625 , -0.50244140625 , 55.3274725275 , 49.4798534799 , -43.9321123321 , -6.62994384766 , 6.88171386719 , 2.63214111328 
2018/05/16 12:30:36.522691 , -0.255615234375 , -0.7958984375 , -0.46728515625 , 55.3274725275 , 49.4798534799 , -43.9321123321 , -2.57873535156 , 4.55474853516 , 2.43377685547 
2018/05/16 12:30:36.815142 , -0.255615234375 , -0.7958984375 , -0.46728515625 , 55.3274725275 , 49.4798534799 , -43.9321123321 , -2.57873535156 , 4.55474853516 , 2.43377685547 
2018/05/16 12:30:37.107919 , -0.255615234375 , -0.7958984375 , -0.46728515625 , 55.3274725275 , 49.4798534799 , -43.9321123321 , -2.57873535156 , 4.55474853516 , 2.43377685547 
2018/05/16 12:30:37.400283 , -0.255615234375 , -0.7958984375 , -0.46728515625 , 55.3274725275 , 49.4798534799 , -43.9321123321 , -7.94982910156 , 8.31604003906 , -0.526428222656 
2018/05/16 12:30:37.692810 , -0.264404296875 , -0.81005859375 , -0.54248046875 , 55.3274725275 , 49.4798534799 , -43.9321123321 , -7.94982910156 , 8.31604003906 , -0.526428222656 
2018/05/16 12:30:37.985194 , -0.264404296875 , -0.81005859375 , -0.54248046875 , 55.3274725275 , 49.4798534799 , -43.9321123321 , -7.94982910156 , 8.31604003906 , -0.526428222656 
2018/05/16 12:30:38.277951 , -0.264404296875 , -0.81005859375 , -0.54248046875 , 55.3274725275 , 49.4798534799 , -43.9321123321 , -7.94982910156 , 8.31604003906 , -0.526428222656 
2018/05/16 12:30:38.570305 , -0.290283203125 , -0.834716796875 , -0.438232421875 , 54.4278388278 , 49.3299145299 , -44.6818070818 , -7.30895996094 , 9.35363769531 , 1.92260742188 
2018/05/16 12:30:38.862939 , -0.290283203125 , -0.834716796875 , -0.438232421875 , 54.4278388278 , 49.3299145299 , -44.6818070818 , -7.30895996094 , 9.35363769531 , 1.92260742188 
2018/05/16 12:30:39.155623 , -0.290283203125 , -0.834716796875 , -0.438232421875 , 54.4278388278 , 49.3299145299 , -44.6818070818 , -7.30895996094 , 9.35363769531 , 1.92260742188 
2018/05/16 12:30:39.447881 , -0.290283203125 , -0.834716796875 , -0.438232421875 , 55.9272283272 , 49.7797313797 , -43.9321123321 , -6.56127929688 , 7.65991210938 , -0.579833984375 
2018/05/16 12:30:39.740315 , -0.287841796875 , -0.79296875 , -0.457763671875 , 55.9272283272 , 49.7797313797 , -43.9321123321 , -6.56127929688 , 7.65991210938 , -0.579833984375 
2018/05/16 12:30:40.032984 , -0.287841796875 , -0.79296875 , -0.457763671875 , 55.9272283272 , 49.7797313797 , -43.9321123321 , -6.56127929688 , 7.65991210938 , -0.579833984375 
2018/05/16 12:30:40.325400 , -0.287841796875 , -0.79296875 , -0.457763671875 , 55.9272283272 , 49.7797313797 , -43.9321123321 , -8.18634033203 , 5.16510009766 , -1.24359130859 
2018/05/16 12:30:40.617853 , -0.1884765625 , -0.781494140625 , -0.493408203125 , 55.9272283272 , 49.7797313797 , -43.9321123321 , -8.18634033203 , 5.16510009766 , -1.24359130859 
2018/05/16 12:30:40.910455 , -0.1884765625 , -0.781494140625 , -0.493408203125 , 55.9272283272 , 49.7797313797 , -43.9321123321 , -8.18634033203 , 5.16510009766 , -1.24359130859 
2018/05/16 12:30:41.203116 , -0.1884765625 , -0.781494140625 , -0.493408203125 , 55.9272283272 , 49.7797313797 , -43.9321123321 , -8.18634033203 , 5.16510009766 , -1.24359130859 
2018/05/16 12:30:41.544221 , -0.373046875 , -0.600341796875 , -0.562255859375 , 55.9272283272 , 49.7797313797 , -43.9321123321 , 15.1519775391 , -1.07574462891 , -8.76617431641 
2018/05/16 12:30:41.836789 , -0.373046875 , -0.600341796875 , -0.562255859375 , 55.9272283272 , 49.7797313797 , -43.9321123321 , 15.1519775391 , -1.07574462891 , -8.76617431641 
2018/05/16 12:30:42.129470 , -0.373046875 , -0.600341796875 , -0.562255859375 , 55.9272283272 , 49.7797313797 , -43.9321123321 , 15.1519775391 , -1.07574462891 , -8.76617431641 
2018/05/16 12:30:42.421859 , -0.373046875 , -0.600341796875 , -0.562255859375 , 51.8788766789 , 52.7785103785 , -44.6818070818 , -1.80053710938 , -0.244140625 , 1.87683105469 
